"Time (s)","Acceleration x (m/s^2)","Acceleration y (m/s^2)","Acceleration z (m/s^2)"
1.528448100E-2,1.005521491E-1,9.971421242E0,-1.223384500E0
1.768745000E-2,1.005521491E-1,9.971421242E0,-1.223384500E0
2.010323100E-2,1.268872321E-1,9.957056999E0,-1.218596220E0
2.253187700E-2,1.412518322E-1,9.937904358E0,-1.170714259E0
2.496052300E-2,1.556164175E-1,9.904387474E0,-1.122832298E0
2.738916900E-2,1.843456030E-1,9.863686562E0,-1.065374017E0
2.981781500E-2,1.987102032E-1,9.825381279E0,-9.791863561E-1
3.224646000E-2,1.939219981E-1,9.784682274E0,-9.073634148E-1
3.467510600E-2,1.819514930E-1,9.755951881E0,-8.666637540E-1
3.710375200E-2,1.723751128E-1,9.748769760E0,-8.115994930E-1
3.953239800E-2,1.627987176E-1,9.748769760E0,-7.804762125E-1
4.196104400E-2,1.388577372E-1,9.755951881E0,-8.092053533E-1
4.438969000E-2,1.173108369E-1,9.787075996E0,-8.570873737E-1
4.681833500E-2,1.077344418E-1,9.825381279E0,-9.145457745E-1
4.924698100E-2,8.139935881E-2,9.851716042E0,-9.720040560E-1
5.167562700E-2,6.942886859E-2,9.880446434E0,-1.022280216E0
5.410427300E-2,8.139935881E-2,9.918750763E0,-1.077344418E0
5.653291900E-2,8.618755639E-2,9.937904358E0,-1.118044138E0
5.896156500E-2,1.077344418E-1,9.933115959E0,-1.137196898E0
6.139021000E-2,1.412518322E-1,9.928327560E0,-1.156349778E0
6.381848900E-2,1.651928127E-1,9.894809723E0,-1.185078859E0
6.624713500E-2,1.867396981E-1,9.842140198E0,-1.151561499E0
6.867578100E-2,1.963160932E-1,9.806227684E0,-1.074950337E0
7.110437500E-2,2.106806934E-1,9.777499199E0,-1.017491937E0
7.353302100E-2,2.082865983E-1,9.743982315E0,-9.456689954E-1
7.596166600E-2,1.915279031E-1,9.729617119E0,-8.714519143E-1
7.839031200E-2,1.819514930E-1,9.717646599E0,-8.475109339E-1
8.081895800E-2,1.747692078E-1,9.717646599E0,-8.451168537E-1
8.324760400E-2,1.795574129E-1,9.734406471E0,-8.211758733E-1
8.567625000E-2,1.891337931E-1,9.741587639E0,-8.331463933E-1
8.810489600E-2,1.795574129E-1,9.763134956E0,-8.618755341E-1
9.053354100E-2,1.675869077E-1,9.784682274E0,-9.097574949E-1
9.296218700E-2,1.675869077E-1,9.820592880E0,-9.720040560E-1
9.539083300E-2,1.723751128E-1,9.861292839E0,-1.015097857E0
9.781947900E-2,1.915279031E-1,9.880446434E0,-1.048615217E0
1.002481250E-1,1.843456030E-1,9.901991844E0,-1.065374017E0
1.026763540E-1,1.843456030E-1,9.916357040E0,-1.074950337E0
1.051049990E-1,2.058925033E-1,9.913963318E0,-1.067767978E0
1.075336450E-1,2.011042982E-1,9.904387474E0,-1.041432977E0
1.099622910E-1,1.939219981E-1,9.880446434E0,-1.007915616E0
1.123909370E-1,1.987102032E-1,9.844533920E0,-9.672158957E-1
1.148195830E-1,2.058925033E-1,9.822986603E0,-9.217280149E-1
1.172482290E-1,2.130747885E-1,9.794258118E0,-8.882106543E-1
1.196768740E-1,2.082865983E-1,9.760741234E0,-8.594814539E-1
1.221055200E-1,2.058925033E-1,9.746376038E0,-8.403286934E-1
1.245341660E-1,2.011042982E-1,9.736800194E0,-8.259640336E-1
1.269628120E-1,2.034983933E-1,9.748769760E0,-8.283581734E-1
1.293914580E-1,2.154688835E-1,9.763134956E0,-8.522991538E-1
1.318201040E-1,2.130747885E-1,9.779892921E0,-8.786342740E-1
1.342294270E-1,2.130747885E-1,9.803833961E0,-9.145457745E-1
1.366160410E-1,2.130747885E-1,9.822986603E0,-9.432749152E-1
1.389973960E-1,2.154688835E-1,9.849322319E0,-9.767923355E-1
1.413788020E-1,2.250452787E-1,9.868474960E0,-1.024674296E0
1.437583850E-1,2.274393737E-1,9.873263359E0,-1.039038897E0
1.461390100E-1,2.106806934E-1,9.880446434E0,-1.034250736E0
1.485204160E-1,1.915279031E-1,9.885233879E0,-1.024674296E0
1.509018220E-1,1.939219981E-1,9.866081238E0,-9.959450364E-1
1.532823950E-1,1.987102032E-1,9.837351799E0,-9.767923355E-1
1.556630200E-1,1.987102032E-1,9.830168724E0,-9.528512955E-1
1.580443740E-1,2.106806934E-1,9.813410759E0,-9.217280149E-1
1.604257810E-1,2.322275788E-1,9.775105476E0,-8.834224343E-1
1.628064060E-1,2.441980839E-1,9.767923355E0,-8.762401342E-1
1.651870310E-1,2.394098788E-1,9.770317078E0,-9.289103150E-1
1.675683850E-1,2.274393737E-1,9.765528679E0,-9.360926151E-1
1.699497910E-1,2.274393737E-1,9.772710800E0,-9.097574949E-1
1.723303640E-1,2.298334837E-1,9.801440239E0,-9.049693346E-1
1.747109890E-1,2.322275788E-1,9.806227684E0,-1.046221137E0
1.770923950E-1,2.202570736E-1,9.856505394E0,-1.199443460E0
1.794738010E-1,1.987102032E-1,9.899598122E0,-1.189867139E0
1.818543740E-1,1.939219981E-1,9.913963318E0,-1.055797458E0
1.842346340E-1,1.819514930E-1,9.949873924E0,-9.648218155E-1
1.866159880E-1,1.867396981E-1,9.937904358E0,-9.791863561E-1
1.889973950E-1,1.915279031E-1,9.901991844E0,-9.456689954E-1
1.913780200E-1,1.867396981E-1,9.844533920E0,-9.576395154E-1
1.937586450E-1,1.915279031E-1,9.806227684E0,-9.672158957E-1
1.961399990E-1,2.034983933E-1,9.775105476E0,-9.336984754E-1
1.985214050E-1,2.034983933E-1,9.755951881E0,-9.313044548E-1
2.009023430E-1,2.106806934E-1,9.751164436E0,-9.313044548E-1
2.032829680E-1,2.298334837E-1,9.746376038E0,-8.953929543E-1
2.056643220E-1,2.465921789E-1,9.751164436E0,-9.145457745E-1
2.080460940E-1,2.418039739E-1,9.782286644E0,-9.193339348E-1
2.104270830E-1,2.226511836E-1,9.796651840E0,-8.882106543E-1
2.128081250E-1,2.058925033E-1,9.801440239E0,-9.145457745E-1
2.151889580E-1,1.795574129E-1,9.827775002E0,-9.504572153E-1
2.175699480E-1,1.436459273E-1,9.827775002E0,-9.743981957E-1
2.199505210E-1,1.053403467E-1,9.820592880E0,-1.027068377E0
2.223311460E-1,5.985246971E-2,9.846927643E0,-1.074950337E0
2.247125000E-1,2.633508667E-2,9.878050804E0,-1.079738498E0
2.270939060E-1,-4.788197111E-3,9.899598122E0,-1.077344418E0
2.294745310E-1,-2.872918546E-2,9.918750763E0,-1.082132578E0
2.318551560E-1,-2.394098788E-2,9.913963318E0,-1.070162177E0
2.342365100E-1,-1.197049394E-2,9.894809723E0,-1.043827057E0
2.366179170E-1,2.394098556E-3,9.873263359E0,-1.017491937E0
2.389985420E-1,3.830557689E-2,9.854109764E0,-9.600335956E-1
2.413791670E-1,8.858165890E-2,9.825381279E0,-8.834224343E-1
2.437605210E-1,1.412518322E-1,9.794258118E0,-8.355404139E-1
2.461419270E-1,1.867396981E-1,9.770317078E0,-7.972348928E-1
2.485225000E-1,2.250452787E-1,9.751164436E0,-7.948408127E-1
2.509031250E-1,2.561685741E-1,9.739193916E0,-8.235700130E-1
2.532844790E-1,2.848977447E-1,9.758345604E0,-8.570873737E-1
2.556658850E-1,3.064446151E-1,9.787075996E0,-8.977869749E-1
2.580465100E-1,3.040505350E-1,9.794258118E0,-9.265161753E-1
2.604271350E-1,2.753213346E-1,9.803833961E0,-9.528512955E-1
2.628086980E-1,2.346216738E-1,9.830168724E0,-9.911568761E-1
2.651901040E-1,1.843456030E-1,9.846927643E0,-1.010309696E0
2.675707290E-1,1.340695322E-1,9.856505394E0,-1.015097857E0
2.699513540E-1,9.097574651E-2,9.873263359E0,-1.015097857E0
2.723327080E-1,6.224656478E-2,9.875657082E0,-1.019886017E0
2.747141140E-1,4.069967940E-2,9.873263359E0,-1.007915616E0
2.770946870E-1,3.112328239E-2,9.878050804E0,-9.983391762E-1
2.794753120E-1,4.788197577E-2,9.868474960E0,-1.010309696E0
2.818567180E-1,8.379345387E-2,9.851716042E0,-9.863687158E-1
2.842381250E-1,1.197049394E-1,9.842140198E0,-9.672158957E-1
2.866186980E-1,1.604046077E-1,9.820592880E0,-9.624276757E-1
2.889993230E-1,2.154688835E-1,9.801440239E0,-9.408808351E-1
2.913806770E-1,2.633508742E-1,9.794258118E0,-9.265161753E-1
2.937620830E-1,2.968682647E-1,9.779892921E0,-9.265161753E-1
2.961427080E-1,3.375679255E-1,9.767923355E0,-9.313044548E-1
2.985233330E-1,3.734793961E-1,9.763134956E0,-9.360926151E-1
3.009046870E-1,3.902381063E-1,9.765528679E0,-9.336984754E-1
3.032858320E-1,3.926321864E-1,9.777499199E0,-9.265161753E-1
3.056664050E-1,3.782675862E-1,9.770317078E0,-9.289103150E-1
3.080470300E-1,3.591148257E-1,9.765528679E0,-9.528512955E-1
3.104284370E-1,3.351738155E-1,9.775105476E0,-9.815804958E-1
3.128098430E-1,3.112328351E-1,9.791864395E0,-1.005521536E0
3.151904160E-1,2.848977447E-1,9.799045563E0,-1.005521536E0
3.175710410E-1,2.346216738E-1,9.806227684E0,-9.863687158E-1
3.199523950E-1,1.915279031E-1,9.825381279E0,-9.743981957E-1
3.223338010E-1,1.651928127E-1,9.846927643E0,-9.720040560E-1
3.247144260E-1,1.412518322E-1,9.858899117E0,-9.743981957E-1
3.270958330E-1,1.340695322E-1,9.866081238E0,-9.767923355E-1
3.294771870E-1,1.292813420E-1,9.866081238E0,-9.983391762E-1
3.318585940E-1,1.316754371E-1,9.878050804E0,-1.017491937E0
3.342392190E-1,1.556164175E-1,9.885233879E0,-1.019886017E0
3.366198440E-1,1.843456030E-1,9.875657082E0,-1.036644697E0
3.390011980E-1,1.939219981E-1,9.873263359E0,-1.055797458E0
3.413826040E-1,2.154688835E-1,9.866081238E0,-1.043827057E0
3.437631770E-1,2.394098788E-1,9.844533920E0,-1.029462457E0
3.461430730E-1,2.465921789E-1,9.837351799E0,-1.017491937E0
3.485244790E-1,2.561685741E-1,9.854109764E0,-9.935510159E-1
3.509058850E-1,2.705331445E-1,9.849322319E0,-9.743981957E-1
3.532864580E-1,2.801095545E-1,9.818199158E0,-9.624276757E-1
3.556670830E-1,2.753213346E-1,9.791864395E0,-9.696099758E-1
3.580484380E-1,2.633508742E-1,9.770317078E0,-9.791863561E-1
3.604298440E-1,2.346216738E-1,9.758345604E0,-9.815804958E-1
3.628104690E-1,2.058925033E-1,9.758345604E0,-9.696099758E-1
3.651910940E-1,1.891337931E-1,9.765528679E0,-9.624276757E-1
3.675724480E-1,1.819514930E-1,9.787075996E0,-9.863687158E-1
3.699538540E-1,1.723751128E-1,9.806227684E0,-1.003127337E0
3.723344790E-1,1.412518322E-1,9.808623314E0,-1.012703776E0
3.747151040E-1,1.101285368E-1,9.827775002E0,-1.024674296E0
3.770964580E-1,1.149167418E-1,9.839746475E0,-1.043827057E0
3.794778650E-1,1.101285368E-1,9.842140198E0,-1.053403497E0
3.818584380E-1,8.379345387E-2,9.858899117E0,-1.053403497E0
3.842388020E-1,6.703476608E-2,9.873263359E0,-1.053403497E0
3.866202080E-1,5.506426841E-2,9.854109764E0,-1.039038897E0
3.890015620E-1,4.069967940E-2,9.844533920E0,-1.029462457E0
3.913821870E-1,3.112328239E-2,9.851716042E0,-1.029462457E0
3.937639060E-1,4.069967940E-2,9.854109764E0,-1.003127337E0
3.961452600E-1,4.069967940E-2,9.851716042E0,-9.696099758E-1
3.985266660E-1,5.745837092E-2,9.842140198E0,-9.528512955E-1
4.009072910E-1,6.464067101E-2,9.834958076E0,-9.432749152E-1
4.032879160E-1,6.224656478E-2,9.825381279E0,-9.504572153E-1
4.056692710E-1,8.858165890E-2,9.815805435E0,-9.384866953E-1
4.080506770E-1,1.077344418E-1,9.811017036E0,-9.265161753E-1
4.104313020E-1,1.292813420E-1,9.806227684E0,-9.480631351E-1
4.128119270E-1,1.580105126E-1,9.799045563E0,-9.720040560E-1
4.151932810E-1,1.819514930E-1,9.791864395E0,-9.839745760E-1
4.175746870E-1,2.130747885E-1,9.791864395E0,-1.000733256E0
4.199552600E-1,2.441980839E-1,9.796651840E0,-1.015097857E0
4.223358850E-1,2.513803840E-1,9.799045563E0,-1.017491937E0
4.247164050E-1,2.489862591E-1,9.818199158E0,-1.022280216E0
4.270978120E-1,2.418039739E-1,9.830168724E0,-1.027068377E0
4.294784370E-1,2.202570736E-1,9.832564354E0,-1.029462457E0
4.318590620E-1,2.106806934E-1,9.844533920E0,-1.029462457E0
4.342404160E-1,1.987102032E-1,9.844533920E0,-1.031856537E0
4.366218220E-1,1.771633178E-1,9.842140198E0,-1.017491937E0
4.390024470E-1,1.627987176E-1,9.830168724E0,-9.959450364E-1
4.413830720E-1,1.651928127E-1,9.820592880E0,-9.767923355E-1
4.437644260E-1,1.604046077E-1,9.827775002E0,-9.600335956E-1
4.461458320E-1,1.627987176E-1,9.820592880E0,-9.648218155E-1
4.485264570E-1,1.795574129E-1,9.813410759E0,-9.552453756E-1
4.509070820E-1,1.963160932E-1,9.818199158E0,-9.600335956E-1
4.532884370E-1,2.298334837E-1,9.813410759E0,-9.791863561E-1
4.556698430E-1,2.537744641E-1,9.815805435E0,-9.696099758E-1
4.580506250E-1,2.537744641E-1,9.832564354E0,-9.648218155E-1
4.604312500E-1,2.537744641E-1,9.837351799E0,-9.624276757E-1
4.628126040E-1,2.609567642E-1,9.825381279E0,-9.672158957E-1
4.651939580E-1,2.657449543E-1,9.813410759E0,-9.767923355E-1
4.675745830E-1,2.705331445E-1,9.825381279E0,-9.863687158E-1
4.699552080E-1,2.848977447E-1,9.827775002E0,-9.983391762E-1
4.723365620E-1,2.825036645E-1,9.818199158E0,-9.935510159E-1
4.747182290E-1,2.633508742E-1,9.806227684E0,-9.791863561E-1
4.770988540E-1,2.513803840E-1,9.799045563E0,-9.576395154E-1
4.794794790E-1,2.585626841E-1,9.799045563E0,-9.432749152E-1
4.818608330E-1,2.489862591E-1,9.803833961E0,-9.265161753E-1
4.842422390E-1,2.370157838E-1,9.815805435E0,-9.073634148E-1
4.866228120E-1,2.441980839E-1,9.811017036E0,-9.073634148E-1
4.890034370E-1,2.370157838E-1,9.801440239E0,-9.025752544E-1
4.913848430E-1,2.298334837E-1,9.799045563E0,-9.073634148E-1
4.937662490E-1,2.513803840E-1,9.806227684E0,-9.265161753E-1
4.961468220E-1,2.705331445E-1,9.815805435E0,-9.289103150E-1
4.985274470E-1,2.705331445E-1,9.806227684E0,-9.097574949E-1
5.009088010E-1,2.657449543E-1,9.808623314E0,-9.145457745E-1
5.032904170E-1,2.633508742E-1,9.827775002E0,-9.384866953E-1
5.056710420E-1,2.633508742E-1,9.834958076E0,-9.313044548E-1
5.080516670E-1,2.609567642E-1,9.827775002E0,-9.169397950E-1
5.104330210E-1,2.561685741E-1,9.834958076E0,-9.073634148E-1
5.128144270E-1,2.561685741E-1,9.851716042E0,-9.121516347E-1
5.151950520E-1,2.441980839E-1,9.844533920E0,-9.193339348E-1
5.175756770E-1,2.298334837E-1,9.830168724E0,-9.097574949E-1
5.199570310E-1,2.154688835E-1,9.827775002E0,-9.145457745E-1
5.223389060E-1,2.034983933E-1,9.846927643E0,-9.025752544E-1
5.247194780E-1,1.987102032E-1,9.851716042E0,-8.786342740E-1
5.271001030E-1,1.843456030E-1,9.842140198E0,-9.073634148E-1
5.294815100E-1,1.723751128E-1,9.851716042E0,-9.193339348E-1
5.318629160E-1,1.675869077E-1,9.851716042E0,-8.977869749E-1
5.342434890E-1,1.651928127E-1,9.839746475E0,-9.073634148E-1
5.366241140E-1,1.675869077E-1,9.832564354E0,-9.313044548E-1
5.390054680E-1,1.867396981E-1,9.830168724E0,-9.360926151E-1
5.413868740E-1,2.154688835E-1,9.842140198E0,-9.432749152E-1
5.437667180E-1,2.322275788E-1,9.839746475E0,-9.360926151E-1
5.461473430E-1,2.585626841E-1,9.832564354E0,-9.384866953E-1
5.485286970E-1,2.705331445E-1,9.830168724E0,-9.600335956E-1
5.509101040E-1,2.753213346E-1,9.813410759E0,-9.696099758E-1
5.532907290E-1,2.944741547E-1,9.811017036E0,-9.576395154E-1
5.556713540E-1,3.040505350E-1,9.818199158E0,-9.360926151E-1
5.580527080E-1,3.016564250E-1,9.808623314E0,-9.408808351E-1
5.604341140E-1,2.848977447E-1,9.791864395E0,-9.456689954E-1
5.628146870E-1,2.657449543E-1,9.794258118E0,-9.313044548E-1
5.651953120E-1,2.537744641E-1,9.818199158E0,-9.217280149E-1
5.675767180E-1,2.322275788E-1,9.820592880E0,-9.336984754E-1
5.699581250E-1,1.963160932E-1,9.811017036E0,-9.313044548E-1
5.723386970E-1,1.819514930E-1,9.806227684E0,-9.336984754E-1
5.747193220E-1,1.651928127E-1,9.806227684E0,-9.552453756E-1
5.771006770E-1,1.508282125E-1,9.820592880E0,-9.576395154E-1
5.794820830E-1,1.292813420E-1,9.832564354E0,-9.456689954E-1
5.818627080E-1,1.125226393E-1,9.839746475E0,-9.600335956E-1
5.842433850E-1,1.005521491E-1,9.839746475E0,-9.600335956E-1
5.866249480E-1,1.077344418E-1,9.832564354E0,-9.648218155E-1
5.890063540E-1,1.220990419E-1,9.825381279E0,-9.720040560E-1
5.913869790E-1,1.364636272E-1,9.830168724E0,-9.648218155E-1
5.937676040E-1,1.508282125E-1,9.842140198E0,-9.815804958E-1
5.961489580E-1,1.580105126E-1,9.837351799E0,-9.720040560E-1
5.985303650E-1,1.771633178E-1,9.839746475E0,-9.672158957E-1
6.009109380E-1,2.011042982E-1,9.834958076E0,-1.012703776E0
6.032915630E-1,2.298334837E-1,9.830168724E0,-1.046221137E0
6.056729690E-1,2.489862591E-1,9.830168724E0,-1.055797458E0
6.080543750E-1,2.585626841E-1,9.794258118E0,-1.065374017E0
6.104349480E-1,2.657449543E-1,9.779892921E0,-1.043827057E0
6.128155730E-1,2.729272544E-1,9.808623314E0,-9.791863561E-1
6.151969270E-1,2.729272544E-1,9.787075996E0,-9.839745760E-1
6.175783330E-1,2.681390643E-1,9.806227684E0,-9.600335956E-1
6.199589580E-1,2.609567642E-1,9.832564354E0,-9.576395154E-1
6.223395830E-1,2.418039739E-1,9.801440239E0,-1.000733256E0
6.247204680E-1,2.370157838E-1,9.834958076E0,-9.241221547E-1
6.271018740E-1,2.202570736E-1,9.863686562E0,-9.097574949E-1
6.294824990E-1,1.604046077E-1,9.842140198E0,-9.983391762E-1
6.318631240E-1,1.197049394E-1,9.844533920E0,-1.003127337E0
6.342444780E-1,1.005521491E-1,9.858899117E0,-9.983391762E-1
6.366258840E-1,6.224656478E-2,9.861292839E0,-1.034250736E0
6.390064570E-1,2.872918546E-2,9.882840157E0,-1.000733256E0
6.413870820E-1,1.915278845E-2,9.904387474E0,-9.528512955E-1
6.437684880E-1,2.394098556E-3,9.882840157E0,-9.576395154E-1
6.461498950E-1,4.788197111E-3,9.882840157E0,-9.528512955E-1
6.485315620E-1,3.351738304E-2,9.885233879E0,-9.552453756E-1
6.509121870E-1,5.027607456E-2,9.854109764E0,-9.815804958E-1
6.532935410E-1,8.618755639E-2,9.842140198E0,-9.815804958E-1
6.556749470E-1,1.316754371E-1,9.834958076E0,-9.528512955E-1
6.580555720E-1,1.771633178E-1,9.830168724E0,-9.049693346E-1
6.604361970E-1,2.274393737E-1,9.815805435E0,-9.049693346E-1
6.628175510E-1,2.777154744E-1,9.794258118E0,-9.217280149E-1
6.651977070E-1,3.208092153E-1,9.777499199E0,-9.073634148E-1
6.675783320E-1,3.543266356E-1,9.758345604E0,-9.336984754E-1
6.699589570E-1,3.854499161E-1,9.763134956E0,-9.480631351E-1
6.723403120E-1,4.022085965E-1,9.772710800E0,-9.552453756E-1
6.747220830E-1,4.189672768E-1,9.794258118E0,-9.600335956E-1
6.771027080E-1,4.165731966E-1,9.806227684E0,-9.528512955E-1
6.794833330E-1,3.950262666E-1,9.811017036E0,-9.504572153E-1
6.818646870E-1,3.662970960E-1,9.830168724E0,-9.480631351E-1
6.842460930E-1,3.375679255E-1,9.851716042E0,-9.720040560E-1
6.866266660E-1,2.944741547E-1,9.856505394E0,-9.863687158E-1
6.890072910E-1,2.370157838E-1,9.868474960E0,-9.456689954E-1
6.913886970E-1,1.867396981E-1,9.882840157E0,-9.121516347E-1
6.937701040E-1,1.508282125E-1,9.880446434E0,-9.217280149E-1
6.961506770E-1,1.029462516E-1,9.894809723E0,-8.929988146E-1
6.985313020E-1,5.027607456E-2,9.901991844E0,-8.235700130E-1
7.009126560E-1,1.436459273E-2,9.885233879E0,-7.972348928E-1
7.032941660E-1,-3.830557689E-2,9.846927643E0,-8.427227736E-1
7.056747910E-1,-1.029462516E-1,9.834958076E0,-8.044171929E-1
7.080554160E-1,-1.388577372E-1,9.822986603E0,-7.469587922E-1
7.104367700E-1,-1.532223076E-1,9.801440239E0,-7.948408127E-1
7.128181760E-1,-1.484341323E-1,9.830168724E0,-8.475109339E-1
7.152002070E-1,-1.149167418E-1,9.854109764E0,-8.618755341E-1
7.175808320E-1,-5.506426841E-2,9.863686562E0,-8.355404139E-1
7.199621870E-1,-2.394098556E-3,9.894809723E0,-8.020230532E-1
7.223435930E-1,4.548787326E-2,9.890022278E0,-8.953929543E-1
7.247241660E-1,8.379345387E-2,9.842140198E0,-9.935510159E-1
7.271047910E-1,1.149167418E-1,9.813410759E0,-9.193339348E-1
7.294861970E-1,1.436459273E-1,9.808623314E0,-8.475109339E-1
7.318676030E-1,1.723751128E-1,9.777499199E0,-8.714519143E-1
7.342481760E-1,2.250452787E-1,9.765528679E0,-8.977869749E-1
7.366288010E-1,2.585626841E-1,9.765528679E0,-9.025752544E-1
7.390101550E-1,2.513803840E-1,9.763134956E0,-8.834224343E-1
7.413915620E-1,2.418039739E-1,9.767923355E0,-9.001811147E-1
7.437704680E-1,2.130747885E-1,9.784682274E0,-9.672158957E-1
7.461510930E-1,1.771633178E-1,9.794258118E0,-1.019886017E0
7.485324470E-1,1.508282125E-1,9.772710800E0,-1.046221137E0
7.509138530E-1,8.858165890E-2,9.782286644E0,-1.022280216E0
7.532944780E-1,1.436459273E-2,9.830168724E0,-8.810282946E-1
7.556751030E-1,-3.830557689E-2,9.854109764E0,-6.655594110E-1
7.580564570E-1,-8.618755639E-2,9.858899117E0,-6.009188294E-1
7.604378630E-1,-1.316754371E-1,9.827775002E0,-8.115994930E-1
7.628184360E-1,-1.436459273E-1,9.789469719E0,-1.034250736E0
7.651990610E-1,-1.292813420E-1,9.820592880E0,-1.062979817E0
7.675804680E-1,-1.005521491E-1,9.894809723E0,-1.062979817E0
7.699618740E-1,-5.027607456E-2,9.952267647E0,-1.106073618E0
7.723424470E-1,2.872918546E-2,9.957056999E0,-1.146773219E0
7.747230720E-1,1.101285368E-1,9.964239120E0,-1.094103098E0
7.771044260E-1,1.843456030E-1,9.961845398E0,-9.480631351E-1
7.794877080E-1,2.609567642E-1,9.923539162E0,-8.618755341E-1
7.818683330E-1,3.255974352E-1,9.851716042E0,-9.336984754E-1
7.842485930E-1,3.591148257E-1,9.791864395E0,-1.012703776E0
7.866299470E-1,3.854499161E-1,9.751164436E0,-1.003127337E0
7.890113540E-1,4.046026766E-1,9.720041275E0,-1.027068377E0
7.913919790E-1,3.998144865E-1,9.722434998E0,-1.165926099E0
7.937726040E-1,3.758735061E-1,9.732010841E0,-1.304783821E0
7.961544790E-1,3.591148257E-1,9.760741234E0,-1.297601461E0
7.985358850E-1,3.447502255E-1,9.815805435E0,-1.146773219E0
8.009165100E-1,3.232033551E-1,9.844533920E0,-1.070162177E0
8.032971350E-1,2.944741547E-1,9.825381279E0,-1.113255858E0
8.056784890E-1,2.657449543E-1,9.779892921E0,-1.089314818E0
8.080598950E-1,2.250452787E-1,9.741587639E0,-9.720040560E-1
8.104404680E-1,1.723751128E-1,9.715252876E0,-8.810282946E-1
8.128210930E-1,1.149167418E-1,9.720041275E0,-8.379345536E-1
8.152025000E-1,5.506426841E-2,9.724828720E0,-8.307522535E-1
8.175839060E-1,2.394098556E-3,9.751164436E0,-8.522991538E-1
8.199644790E-1,-4.788197577E-2,9.813410759E0,-8.906047344E-1
8.223451040E-1,-7.661115378E-2,9.863686562E0,-9.743981957E-1
8.247240610E-1,-8.379345387E-2,9.887627602E0,-1.120438218E0
8.271054670E-1,-6.942886859E-2,9.935509682E0,-1.225778461E0
8.294860920E-1,-2.872918546E-2,9.964239120E0,-1.240143180E0
8.318667170E-1,3.112328239E-2,9.945085526E0,-1.211413980E0
8.342480710E-1,9.576395154E-2,9.916357040E0,-1.161137819E0
8.366294780E-1,1.412518322E-1,9.890022278E0,-1.103679538E0
8.390101030E-1,2.154688835E-1,9.851716042E0,-1.007915616E0
8.413907280E-1,2.825036645E-1,9.808623314E0,-9.049693346E-1
8.437726550E-1,3.279915452E-1,9.787075996E0,-8.714519143E-1
8.461540610E-1,3.591148257E-1,9.770317078E0,-9.265161753E-1
8.485346860E-1,3.615089059E-1,9.741587639E0,-1.034250736E0
8.509153110E-1,3.662970960E-1,9.736800194E0,-1.130014658E0
8.532966650E-1,3.567207158E-1,9.739193916E0,-1.192261100E0
8.556780710E-1,3.375679255E-1,9.741587639E0,-1.220990419E0
8.580586440E-1,2.968682647E-1,9.755951881E0,-1.173108339E0
8.604392690E-1,2.681390643E-1,9.784682274E0,-1.067767978E0
8.628206760E-1,2.274393737E-1,9.803833961E0,-9.528512955E-1
8.652016670E-1,1.723751128E-1,9.796651840E0,-8.499050736E-1
8.675822920E-1,1.316754371E-1,9.767923355E0,-8.115994930E-1
8.699629170E-1,9.576395154E-2,9.751164436E0,-8.259640336E-1
8.723442710E-1,6.224656478E-2,9.763134956E0,-8.451168537E-1
8.747257290E-1,3.351738304E-2,9.777499199E0,-8.618755341E-1
8.771063540E-1,7.182296365E-3,9.811017036E0,-9.073634148E-1
8.794869790E-1,1.197049394E-2,9.861292839E0,-9.815804958E-1
8.818683330E-1,2.394098788E-2,9.887627602E0,-1.058191657E0
8.842497400E-1,3.112328239E-2,9.892416000E0,-1.108467698E0
8.866303650E-1,3.591148183E-2,9.909174919E0,-1.110861897E0
8.890109900E-1,6.224656478E-2,9.921145439E0,-1.089314818E0
8.913923440E-1,1.053403467E-1,9.897204399E0,-1.041432977E0
8.937737500E-1,1.532223076E-1,9.873263359E0,-9.863687158E-1
8.961543750E-1,2.106806934E-1,9.849322319E0,-9.360926151E-1
8.985350000E-1,2.753213346E-1,9.811017036E0,-9.145457745E-1
9.009163540E-1,3.447502255E-1,9.777499199E0,-9.097574949E-1
9.032974470E-1,3.950262666E-1,9.765528679E0,-9.025752544E-1
9.056780200E-1,4.261495769E-1,9.763134956E0,-9.265161753E-1
9.080588010E-1,4.309377670E-1,9.755951881E0,-9.504572153E-1
9.104402080E-1,4.189672768E-1,9.758345604E0,-9.767923355E-1
9.128216140E-1,3.950262666E-1,9.763134956E0,-1.015097857E0
9.152021870E-1,3.519325256E-1,9.763134956E0,-1.046221137E0
9.175828120E-1,2.968682647E-1,9.767923355E0,-1.046221137E0
9.199641660E-1,2.489862591E-1,9.787075996E0,-1.010309696E0
9.223455720E-1,2.106806934E-1,9.808623314E0,-9.720040560E-1
9.247261970E-1,1.771633178E-1,9.813410759E0,-9.480631351E-1
9.271068220E-1,1.556164175E-1,9.818199158E0,-9.384866953E-1
9.294881760E-1,1.484341323E-1,9.813410759E0,-9.600335956E-1
9.318695830E-1,1.412518322E-1,9.822986603E0,-9.815804958E-1
9.342502080E-1,1.388577372E-1,9.842140198E0,-9.767923355E-1
9.366308330E-1,1.412518322E-1,9.846927643E0,-9.815804958E-1
9.390121870E-1,1.484341323E-1,9.863686562E0,-9.887627959E-1
9.413935930E-1,1.651928127E-1,9.870868683E0,-9.959450364E-1
9.437741660E-1,1.891337931E-1,9.873263359E0,-1.015097857E0
9.461559370E-1,2.130747885E-1,9.878050804E0,-1.041432977E0
9.485373430E-1,2.226511836E-1,9.882840157E0,-1.036644697E0
9.509187490E-1,2.274393737E-1,9.882840157E0,-1.034250736E0
9.532993220E-1,2.418039739E-1,9.880446434E0,-1.053403497E0
9.556799470E-1,2.561685741E-1,9.882840157E0,-1.041432977E0
9.580613020E-1,2.537744641E-1,9.868474960E0,-1.012703776E0
9.604427080E-1,2.370157838E-1,9.856505394E0,-1.010309696E0
9.628233330E-1,2.370157838E-1,9.844533920E0,-1.019886017E0
9.652039580E-1,2.609567642E-1,9.834958076E0,-1.010309696E0
9.675853120E-1,2.825036645E-1,9.834958076E0,-9.815804958E-1
9.699667180E-1,3.040505350E-1,9.808623314E0,-9.648218155E-1
9.723497910E-1,3.208092153E-1,9.775105476E0,-9.887627959E-1
9.747304160E-1,3.160210252E-1,9.755951881E0,-1.034250736E0
9.771117700E-1,3.064446151E-1,9.732010841E0,-1.053403497E0
9.794931770E-1,2.825036645E-1,9.727223396E0,-1.051009417E0
9.818738020E-1,2.609567642E-1,9.743982315E0,-1.039038897E0
9.842518220E-1,2.513803840E-1,9.755951881E0,-1.022280216E0
9.866331760E-1,2.346216738E-1,9.753558159E0,-1.012703776E0
9.890145820E-1,2.106806934E-1,9.748769760E0,-1.000733256E0
9.913951550E-1,1.987102032E-1,9.763134956E0,-1.000733256E0
9.937761970E-1,1.915279031E-1,9.779892921E0,-1.007915616E0
9.961576030E-1,1.747692078E-1,9.801440239E0,-1.010309696E0
9.985390090E-1,1.484341323E-1,9.830168724E0,-9.959450364E-1
1.000919582E0,1.173108369E-1,9.842140198E0,-9.839745760E-1
1.003300207E0,9.576395154E-2,9.849322319E0,-9.959450364E-1
1.005681562E0,9.576395154E-2,9.861292839E0,-1.027068377E0
1.008062968E0,1.268872321E-1,9.854109764E0,-1.053403497E0
1.010443593E0,1.532223076E-1,9.844533920E0,-1.062979817E0
1.012824218E0,1.747692078E-1,9.834958076E0,-1.048615217E0
1.015205572E0,1.891337931E-1,9.830168724E0,-1.027068377E0
1.017586978E0,1.987102032E-1,9.818199158E0,-1.015097857E0
1.019967603E0,2.178629786E-1,9.806227684E0,-9.911568761E-1
1.022348228E0,2.226511836E-1,9.806227684E0,-9.576395154E-1
1.024731145E0,2.034983933E-1,9.808623314E0,-9.384866953E-1
1.027112552E0,1.843456030E-1,9.811017036E0,-9.360926151E-1
1.029493177E0,1.891337931E-1,9.801440239E0,-9.384866953E-1
1.031873802E0,2.154688835E-1,9.791864395E0,-9.480631351E-1
1.034255156E0,2.441980839E-1,9.784682274E0,-9.911568761E-1
1.036636718E0,2.633508742E-1,9.770317078E0,-1.055797458E0
1.039017291E0,2.825036645E-1,9.775105476E0,-1.098891377E0
1.041397916E0,3.040505350E-1,9.779892921E0,-1.118044138E0
1.043779322E0,3.208092153E-1,9.772710800E0,-1.084526777E0
1.046160728E0,3.279915452E-1,9.763134956E0,-1.022280216E0
1.048541301E0,3.160210252E-1,9.763134956E0,-9.887627959E-1
1.050921926E0,3.208092153E-1,9.760741234E0,-9.552453756E-1
1.053303333E0,3.064446151E-1,9.763134956E0,-9.073634148E-1
1.055684739E0,2.705331445E-1,9.784682274E0,-8.882106543E-1
1.058065312E0,2.513803840E-1,9.799045563E0,-9.097574949E-1
1.060445937E0,2.346216738E-1,9.803833961E0,-9.432749152E-1
1.062827291E0,2.154688835E-1,9.818199158E0,-9.696099758E-1
1.065207603E0,2.058925033E-1,9.830168724E0,-9.863687158E-1
1.067588228E0,2.034983933E-1,9.839746475E0,-1.007915616E0
1.069968853E0,1.915279031E-1,9.849322319E0,-1.031856537E0
1.072350207E0,2.011042982E-1,9.858899117E0,-1.022280216E0
1.074732812E0,2.298334837E-1,9.863686562E0,-9.935510159E-1
1.077113437E0,2.465921789E-1,9.870868683E0,-9.552453756E-1
1.079494062E0,2.609567642E-1,9.854109764E0,-9.145457745E-1
1.081875416E0,2.753213346E-1,9.834958076E0,-8.929988146E-1
1.084256822E0,2.801095545E-1,9.844533920E0,-8.786342740E-1
1.086637447E0,2.753213346E-1,9.834958076E0,-8.714519143E-1
1.089018072E0,2.561685741E-1,9.820592880E0,-8.906047344E-1
1.091399426E0,2.370157838E-1,9.813410759E0,-9.217280149E-1
1.093780832E0,2.537744641E-1,9.801440239E0,-9.528512955E-1
1.096161405E0,2.681390643E-1,9.799045563E0,-9.791863561E-1
1.098542030E0,2.777154744E-1,9.813410759E0,-9.983391762E-1
1.100923437E0,3.040505350E-1,9.822986603E0,-1.005521536E0
1.103304531E0,3.255974352E-1,9.801440239E0,-9.983391762E-1
1.105685104E0,3.423561156E-1,9.782286644E0,-9.767923355E-1
1.108065729E0,3.639029860E-1,9.782286644E0,-9.360926151E-1
1.110447083E0,3.734793961E-1,9.787075996E0,-9.025752544E-1
1.112828489E0,3.806616962E-1,9.770317078E0,-8.762401342E-1
1.115209114E0,3.734793961E-1,9.760741234E0,-8.618755341E-1
1.117589739E0,3.567207158E-1,9.767923355E0,-8.499050736E-1
1.119971093E0,3.543266356E-1,9.787075996E0,-8.522991538E-1
1.122352500E0,3.375679255E-1,9.811017036E0,-8.786342740E-1
1.124733125E0,3.208092153E-1,9.818199158E0,-9.193339348E-1
1.127113750E0,3.088387549E-1,9.834958076E0,-9.552453756E-1
1.129495104E0,2.944741547E-1,9.837351799E0,-9.743981957E-1
1.131876510E0,2.801095545E-1,9.844533920E0,-9.983391762E-1
1.134257135E0,2.753213346E-1,9.863686562E0,-1.007915616E0
1.136637760E0,2.896859348E-1,9.870868683E0,-9.935510159E-1
1.139019114E0,3.040505350E-1,9.870868683E0,-9.672158957E-1
1.141400520E0,3.112328351E-1,9.854109764E0,-9.265161753E-1
1.143781145E0,3.184151351E-1,9.842140198E0,-9.145457745E-1
1.146159582E0,3.208092153E-1,9.832564354E0,-9.169397950E-1
1.148540937E0,3.208092153E-1,9.820592880E0,-9.097574949E-1
1.150922343E0,3.184151351E-1,9.799045563E0,-9.097574949E-1
1.153302916E0,3.184151351E-1,9.787075996E0,-9.336984754E-1
1.155683541E0,3.064446151E-1,9.791864395E0,-9.408808351E-1
1.158064947E0,2.920800745E-1,9.796651840E0,-9.360926151E-1
1.160446353E0,2.848977447E-1,9.803833961E0,-9.408808351E-1
1.162826926E0,2.825036645E-1,9.791864395E0,-9.432749152E-1
1.165207134E0,2.968682647E-1,9.787075996E0,-9.504572153E-1
1.167588488E0,2.944741547E-1,9.789469719E0,-9.504572153E-1
1.169969895E0,3.064446151E-1,9.794258118E0,-9.384866953E-1
1.172350520E0,3.208092153E-1,9.799045563E0,-9.241221547E-1
1.174731145E0,3.279915452E-1,9.806227684E0,-9.217280149E-1
1.177112499E0,3.255974352E-1,9.806227684E0,-9.265161753E-1
1.179493905E0,3.136269450E-1,9.808623314E0,-9.265161753E-1
1.181874530E0,2.896859348E-1,9.813410759E0,-9.265161753E-1
1.184255155E0,2.465921789E-1,9.830168724E0,-9.097574949E-1
1.186636457E0,2.202570736E-1,9.856505394E0,-9.097574949E-1
1.189017863E0,2.130747885E-1,9.861292839E0,-9.169397950E-1
1.191398332E0,1.915279031E-1,9.868474960E0,-9.145457745E-1
1.193779062E0,1.604046077E-1,9.870868683E0,-9.169397950E-1
1.196160417E0,1.436459273E-1,9.863686562E0,-9.336984754E-1
1.198541823E0,1.364636272E-1,9.846927643E0,-9.480631351E-1
1.200922396E0,1.412518322E-1,9.832564354E0,-9.384866953E-1
1.203303021E0,1.556164175E-1,9.827775002E0,-9.025752544E-1
1.205684427E0,1.556164175E-1,9.806227684E0,-8.714519143E-1
1.208065833E0,1.436459273E-1,9.789469719E0,-8.522991538E-1
1.210446406E0,1.412518322E-1,9.799045563E0,-8.379345536E-1
1.212827031E0,1.316754371E-1,9.803833961E0,-8.259640336E-1
1.215208437E0,1.101285368E-1,9.811017036E0,-8.187817335E-1
1.217589844E0,1.005521491E-1,9.827775002E0,-8.475109339E-1
1.219970417E0,8.858165890E-2,9.827775002E0,-8.977869749E-1
1.222351042E0,6.464067101E-2,9.842140198E0,-9.384866953E-1
1.224731926E0,6.942886859E-2,9.851716042E0,-9.624276757E-1
1.227113332E0,8.379345387E-2,9.851716042E0,-9.887627959E-1
1.229494062E0,8.858165890E-2,9.870868683E0,-9.959450364E-1
1.231874687E0,1.029462516E-1,9.882840157E0,-9.672158957E-1
1.234256041E0,1.101285368E-1,9.875657082E0,-9.360926151E-1
1.236637447E0,1.197049394E-1,9.858899117E0,-9.097574949E-1
1.239018072E0,1.316754371E-1,9.851716042E0,-8.738460541E-1
1.241398697E0,1.292813420E-1,9.844533920E0,-8.475109339E-1
1.243780052E0,1.173108369E-1,9.832564354E0,-8.331463933E-1
1.246161458E0,9.336984903E-2,9.839746475E0,-8.331463933E-1
1.248542083E0,5.745837092E-2,9.851716042E0,-8.403286934E-1
1.250922708E0,2.394098788E-2,9.856505394E0,-8.499050736E-1
1.253304062E0,-9.576394223E-3,9.863686562E0,-8.786342740E-1
1.255685468E0,-4.548787326E-2,9.873263359E0,-9.097574949E-1
1.258066041E0,-6.942886859E-2,9.875657082E0,-9.289103150E-1
1.260446666E0,-8.379345387E-2,9.875657082E0,-9.289103150E-1
1.262829477E0,-8.379345387E-2,9.875657082E0,-9.145457745E-1
1.265210884E0,-6.224656478E-2,9.878050804E0,-9.097574949E-1
1.267591457E0,-3.591148183E-2,9.873263359E0,-8.977869749E-1
1.269972082E0,-1.675869152E-2,9.851716042E0,-8.906047344E-1
1.272353488E0,1.436459273E-2,9.846927643E0,-8.642696142E-1
1.274735051E0,4.788197577E-2,9.851716042E0,-8.379345536E-1
1.277115624E0,5.506426841E-2,9.854109764E0,-8.522991538E-1
1.279496249E0,6.224656478E-2,9.854109764E0,-8.714519143E-1
1.281877603E0,8.858165890E-2,9.842140198E0,-8.810282946E-1
1.284259009E0,1.101285368E-1,9.820592880E0,-8.786342740E-1
1.286639634E0,1.268872321E-1,9.815805435E0,-8.953929543E-1
1.289020259E0,1.340695322E-1,9.827775002E0,-9.073634148E-1
1.291403541E0,1.316754371E-1,9.834958076E0,-8.929988146E-1
1.293784947E0,1.244931296E-1,9.846927643E0,-8.834224343E-1
1.296165572E0,1.173108369E-1,9.846927643E0,-8.690578938E-1
1.298546197E0,1.173108369E-1,9.839746475E0,-8.475109339E-1
1.300927551E0,1.149167418E-1,9.839746475E0,-8.355404139E-1
1.303307447E0,1.197049394E-1,9.839746475E0,-8.451168537E-1
1.305688072E0,1.173108369E-1,9.844533920E0,-8.666637540E-1
1.308068697E0,1.125226393E-1,9.858899117E0,-8.762401342E-1
1.310450051E0,1.197049394E-1,9.861292839E0,-8.858165741E-1
1.312831458E0,1.244931296E-1,9.854109764E0,-9.049693346E-1
1.315212031E0,1.173108369E-1,9.861292839E0,-9.360926151E-1
1.317592656E0,1.173108369E-1,9.873263359E0,-9.528512955E-1
1.319974062E0,1.053403467E-1,9.873263359E0,-9.576395154E-1
1.322355468E0,9.576395154E-2,9.866081238E0,-9.384866953E-1
1.324736041E0,9.815804660E-2,9.873263359E0,-9.169397950E-1
1.327116666E0,1.029462516E-1,9.873263359E0,-9.001811147E-1
1.329498072E0,1.053403467E-1,9.849322319E0,-8.786342740E-1
1.331879479E0,1.149167418E-1,9.832564354E0,-8.690578938E-1
1.334260051E0,1.173108369E-1,9.832564354E0,-8.570873737E-1
1.336640676E0,1.101285368E-1,9.834958076E0,-8.499050736E-1
1.339022031E0,1.125226393E-1,9.818199158E0,-8.475109339E-1
1.341403437E0,1.029462516E-1,9.815805435E0,-8.499050736E-1
1.343784062E0,7.661115378E-2,9.818199158E0,-8.475109339E-1
1.346163020E0,5.985246971E-2,9.813410759E0,-8.355404139E-1
1.348544374E0,6.464067101E-2,9.825381279E0,-8.379345536E-1
1.350925780E0,6.703476608E-2,9.825381279E0,-8.475109339E-1
1.353306405E0,6.703476608E-2,9.822986603E0,-8.546932340E-1
1.355687030E0,7.661115378E-2,9.832564354E0,-8.858165741E-1
1.358068853E0,9.097574651E-2,9.830168724E0,-9.169397950E-1
1.360450260E0,1.077344418E-1,9.830168724E0,-9.097574949E-1
1.362830885E0,1.244931296E-1,9.830168724E0,-9.289103150E-1
1.365211510E0,1.388577372E-1,9.830168724E0,-9.408808351E-1
1.367592864E0,1.580105126E-1,9.822986603E0,-9.193339348E-1
1.369974270E0,1.651928127E-1,9.822986603E0,-9.049693346E-1
1.372354895E0,1.843456030E-1,9.827775002E0,-8.953929543E-1
1.374735520E0,2.058925033E-1,9.822986603E0,-8.786342740E-1
1.377116874E0,1.987102032E-1,9.820592880E0,-8.714519143E-1
1.379498281E0,1.891337931E-1,9.818199158E0,-8.762401342E-1
1.381878853E0,1.891337931E-1,9.820592880E0,-8.834224343E-1
1.384260884E0,1.675869077E-1,9.813410759E0,-8.762401342E-1
1.386642291E0,1.316754371E-1,9.808623314E0,-8.642696142E-1
1.389024114E0,1.173108369E-1,9.808623314E0,-8.642696142E-1
1.391404687E0,1.197049394E-1,9.808623314E0,-8.666637540E-1
1.393785312E0,1.173108369E-1,9.822986603E0,-8.810282946E-1
1.396166666E0,1.053403467E-1,9.830168724E0,-8.906047344E-1
1.398548072E0,9.097574651E-2,9.839746475E0,-8.882106543E-1
1.400928697E0,8.858165890E-2,9.854109764E0,-8.810282946E-1
1.403309322E0,1.149167418E-1,9.854109764E0,-8.810282946E-1
1.405690676E0,1.388577372E-1,9.854109764E0,-8.977869749E-1
1.408072083E0,1.484341323E-1,9.854109764E0,-9.145457745E-1
1.410452708E0,1.412518322E-1,9.842140198E0,-9.193339348E-1
1.412833333E0,1.460400373E-1,9.822986603E0,-9.336984754E-1
1.415214687E0,1.532223076E-1,9.815805435E0,-9.456689954E-1
1.417596093E0,1.508282125E-1,9.813410759E0,-9.360926151E-1
1.419976718E0,1.508282125E-1,9.813410759E0,-9.313044548E-1
1.422357343E0,1.436459273E-1,9.825381279E0,-9.336984754E-1
1.424738384E0,1.388577372E-1,9.827775002E0,-9.360926151E-1
1.427119791E0,1.436459273E-1,9.825381279E0,-9.360926151E-1
1.429500416E0,1.220990419E-1,9.815805435E0,-9.193339348E-1
1.431881041E0,1.005521491E-1,9.813410759E0,-9.049693346E-1
1.434262395E0,9.576395154E-2,9.827775002E0,-9.025752544E-1
1.436643801E0,8.379345387E-2,9.820592880E0,-8.977869749E-1
1.439024374E0,7.421706617E-2,9.818199158E0,-9.001811147E-1
1.441404999E0,5.985246971E-2,9.822986603E0,-9.145457745E-1
1.443786405E0,6.224656478E-2,9.837351799E0,-9.336984754E-1
1.446167811E0,4.788197577E-2,9.846927643E0,-9.480631351E-1
1.448548384E0,1.197049394E-2,9.839746475E0,-9.528512955E-1
1.450929009E0,-7.182296365E-3,9.834958076E0,-9.480631351E-1
1.453310416E0,-1.915278845E-2,9.846927643E0,-9.624276757E-1
1.455691822E0,-3.830557689E-2,9.873263359E0,-9.983391762E-1
1.458072395E0,-4.548787326E-2,9.882840157E0,-9.911568761E-1
1.460453020E0,-4.069967940E-2,9.892416000E0,-9.815804958E-1
1.462834426E0,-4.069967940E-2,9.887627602E0,-9.887627959E-1
1.465216092E0,-3.112328239E-2,9.868474960E0,-9.935510159E-1
1.467596665E0,-2.394098556E-3,9.851716042E0,-1.005521536E0
1.469977290E0,3.351738304E-2,9.846927643E0,-1.005521536E0
1.472358644E0,6.224656478E-2,9.834958076E0,-1.022280216E0
1.474739739E0,8.379345387E-2,9.825381279E0,-1.031856537E0
1.477120364E0,1.029462516E-1,9.815805435E0,-1.022280216E0
1.479500989E0,1.053403467E-1,9.811017036E0,-1.012703776E0
1.481882343E0,9.576395154E-2,9.827775002E0,-9.935510159E-1
1.484263749E0,7.661115378E-2,9.837351799E0,-9.720040560E-1
1.486644635E0,6.703476608E-2,9.827775002E0,-9.600335956E-1
1.489025260E0,5.506426841E-2,9.822986603E0,-9.624276757E-1
1.491406614E0,4.069967940E-2,9.822986603E0,-9.767923355E-1
1.493788020E0,4.069967940E-2,9.818199158E0,-9.959450364E-1
1.496168645E0,3.351738304E-2,9.811017036E0,-1.007915616E0
1.498549270E0,2.154688910E-2,9.820592880E0,-1.012703776E0
1.500930625E0,1.675869152E-2,9.834958076E0,-1.017491937E0
1.503310468E0,1.436459273E-2,9.839746475E0,-1.010309696E0
1.505691041E0,2.154688910E-2,9.856505394E0,-1.007915616E0
1.508071666E0,2.872918546E-2,9.858899117E0,-1.015097857E0
1.510453072E0,2.633508667E-2,9.858899117E0,-1.007915616E0
1.512834478E0,3.112328239E-2,9.873263359E0,-1.010309696E0
1.515215051E0,3.830557689E-2,9.868474960E0,-1.007915616E0
1.517595676E0,3.591148183E-2,9.863686562E0,-9.935510159E-1
1.519977082E0,3.351738304E-2,9.863686562E0,-9.815804958E-1
1.522358489E0,4.548787326E-2,9.851716042E0,-9.815804958E-1
1.524739062E0,4.069967940E-2,9.849322319E0,-9.815804958E-1
1.527119687E0,1.436459273E-2,9.849322319E0,-9.576395154E-1
1.529501093E0,7.182296365E-3,9.844533920E0,-9.456689954E-1
1.531882447E0,0.000000000E0,9.827775002E0,-9.408808351E-1
1.534263072E0,-2.394098556E-3,9.815805435E0,-9.360926151E-1
1.536643697E0,-1.197049394E-2,9.825381279E0,-9.289103150E-1
1.539025051E0,-7.182296365E-3,9.818199158E0,-9.265161753E-1
1.541406457E0,0.000000000E0,9.811017036E0,-9.241221547E-1
1.543786301E0,-9.576394223E-3,9.820592880E0,-9.145457745E-1
1.546166926E0,-4.788197111E-3,9.825381279E0,-9.217280149E-1
1.548548281E0,2.394098556E-3,9.834958076E0,-9.265161753E-1
1.550929791E0,0.000000000E0,9.842140198E0,-9.336984754E-1
1.553310416E0,-7.182296365E-3,9.827775002E0,-9.432749152E-1
1.555691041E0,-1.197049394E-2,9.825381279E0,-9.480631351E-1
1.558072395E0,0.000000000E0,9.820592880E0,-9.624276757E-1
1.560453801E0,1.197049394E-2,9.827775002E0,-9.839745760E-1
1.562834426E0,1.197049394E-2,9.837351799E0,-9.839745760E-1
1.565215051E0,1.436459273E-2,9.834958076E0,-9.839745760E-1
1.567596405E0,2.872918546E-2,9.834958076E0,-9.935510159E-1
1.569977812E0,4.069967940E-2,9.827775002E0,-9.815804958E-1
1.572358437E0,3.830557689E-2,9.825381279E0,-9.720040560E-1
1.574739062E0,3.591148183E-2,9.830168724E0,-9.648218155E-1
1.577120416E0,5.027607456E-2,9.830168724E0,-9.552453756E-1
1.579501822E0,6.464067101E-2,9.834958076E0,-9.480631351E-1
1.581882395E0,6.224656478E-2,9.832564354E0,-9.504572153E-1
1.584262916E0,5.027607456E-2,9.818199158E0,-9.408808351E-1
1.586644165E0,3.591148183E-2,9.820592880E0,-9.289103150E-1
1.589025363E0,4.309377819E-2,9.827775002E0,-9.504572153E-1
1.591405936E0,5.267017335E-2,9.827775002E0,-9.767923355E-1
1.593786561E0,4.548787326E-2,9.839746475E0,-9.983391762E-1
1.596167968E0,5.027607456E-2,9.837351799E0,-1.015097857E0
1.598549374E0,7.900525630E-2,9.834958076E0,-1.019886017E0
1.600929947E0,8.858165890E-2,9.849322319E0,-1.029462457E0
1.603310572E0,9.097574651E-2,9.849322319E0,-1.051009417E0
1.605691926E0,9.815804660E-2,9.842140198E0,-1.039038897E0
1.608073332E0,1.077344418E-1,9.837351799E0,-1.031856537E0
1.610453957E0,1.101285368E-1,9.825381279E0,-1.048615217E0
1.612834582E0,9.097574651E-2,9.813410759E0,-1.043827057E0
1.615215936E0,6.942886859E-2,9.815805435E0,-1.029462457E0
1.617597343E0,6.464067101E-2,9.820592880E0,-1.012703776E0
1.619977968E0,5.506426841E-2,9.827775002E0,-1.010309696E0
1.622358593E0,3.351738304E-2,9.832564354E0,-1.027068377E0
1.624740728E0,2.394098788E-2,9.842140198E0,-1.043827057E0
1.627122082E0,2.872918546E-2,9.842140198E0,-1.058191657E0
1.629502707E0,3.112328239E-2,9.844533920E0,-1.067767978E0
1.631883332E0,4.309377819E-2,9.856505394E0,-1.060585737E0
1.634264686E0,6.703476608E-2,9.856505394E0,-1.055797458E0
1.636646092E0,7.182296365E-2,9.851716042E0,-1.046221137E0
1.639026717E0,6.224656478E-2,9.842140198E0,-1.029462457E0
1.641407342E0,5.267017335E-2,9.832564354E0,-1.005521536E0
1.643788697E0,4.788197577E-2,9.834958076E0,-1.007915616E0
1.646170103E0,4.309377819E-2,9.837351799E0,-1.010309696E0
1.648550728E0,3.591148183E-2,9.825381279E0,-9.983391762E-1
1.650931353E0,2.872918546E-2,9.827775002E0,-1.024674296E0
1.653312707E0,2.154688910E-2,9.846927643E0,-1.048615217E0
1.655694113E0,3.112328239E-2,9.846927643E0,-1.048615217E0
1.658074686E0,3.830557689E-2,9.827775002E0,-1.046221137E0
1.660455311E0,3.591148183E-2,9.822986603E0,-1.041432977E0
1.662836717E0,3.351738304E-2,9.820592880E0,-1.046221137E0
1.665218958E0,5.745837092E-2,9.818199158E0,-1.053403497E0
1.667599531E0,8.618755639E-2,9.818199158E0,-1.036644697E0
1.669980156E0,9.815804660E-2,9.818199158E0,-1.007915616E0
1.672361562E0,1.101285368E-1,9.808623314E0,-9.863687158E-1
1.674743228E0,1.220990419E-1,9.799045563E0,-9.815804958E-1
1.677123801E0,1.292813420E-1,9.794258118E0,-9.959450364E-1
1.679504530E0,1.292813420E-1,9.801440239E0,-1.017491937E0
1.681885936E0,1.316754371E-1,9.813410759E0,-1.027068377E0
1.684267343E0,1.244931296E-1,9.811017036E0,-1.027068377E0
1.686647915E0,1.149167418E-1,9.825381279E0,-1.027068377E0
1.689028540E0,1.125226393E-1,9.846927643E0,-1.051009417E0
1.691409895E0,1.220990419E-1,9.839746475E0,-1.053403497E0
1.693791301E0,1.244931296E-1,9.830168724E0,-1.024674296E0
1.696171926E0,1.149167418E-1,9.844533920E0,-1.010309696E0
1.698552551E0,1.005521491E-1,9.842140198E0,-1.012703776E0
1.700933905E0,1.101285368E-1,9.830168724E0,-1.007915616E0
1.703314113E0,1.149167418E-1,9.822986603E0,-9.959450364E-1
1.705694738E0,1.077344418E-1,9.815805435E0,-9.887627959E-1
1.708075363E0,1.101285368E-1,9.818199158E0,-9.887627959E-1
1.710456717E0,1.149167418E-1,9.832564354E0,-1.000733256E0
1.712838124E0,1.149167418E-1,9.837351799E0,-1.000733256E0
1.715218749E0,1.077344418E-1,9.827775002E0,-9.983391762E-1
1.717599374E0,1.268872321E-1,9.820592880E0,-1.015097857E0
1.719980728E0,1.244931296E-1,9.827775002E0,-1.022280216E0
1.722362134E0,1.292813420E-1,9.827775002E0,-1.019886017E0
1.724742759E0,1.436459273E-1,9.818199158E0,-1.022280216E0
1.727123384E0,1.532223076E-1,9.825381279E0,-1.024674296E0
1.729504738E0,1.651928127E-1,9.832564354E0,-1.012703776E0
1.731886145E0,1.723751128E-1,9.827775002E0,-9.983391762E-1
1.734266770E0,1.699810177E-1,9.822986603E0,-1.000733256E0
1.736647395E0,1.699810177E-1,9.818199158E0,-9.839745760E-1
1.739028749E0,1.867396981E-1,9.820592880E0,-9.696099758E-1
1.741410572E0,1.867396981E-1,9.820592880E0,-9.720040560E-1
1.743790207E0,1.819514930E-1,9.815805435E0,-9.767923355E-1
1.746170832E0,1.795574129E-1,9.811017036E0,-9.672158957E-1
1.748552238E0,1.747692078E-1,9.815805435E0,-9.648218155E-1
1.750933644E0,1.747692078E-1,9.815805435E0,-9.696099758E-1
1.753314217E0,1.723751128E-1,9.811017036E0,-9.504572153E-1
1.755694842E0,1.675869077E-1,9.801440239E0,-9.456689954E-1
1.758076249E0,1.747692078E-1,9.799045563E0,-9.552453756E-1
1.760457655E0,1.747692078E-1,9.806227684E0,-9.648218155E-1
1.762838228E0,1.723751128E-1,9.796651840E0,-9.696099758E-1
1.765218853E0,1.771633178E-1,9.801440239E0,-9.767923355E-1
1.767600259E0,1.867396981E-1,9.808623314E0,-9.815804958E-1
1.769981665E0,1.939219981E-1,9.808623314E0,-9.887627959E-1
1.772362238E0,1.915279031E-1,9.806227684E0,-1.003127337E0
1.774742863E0,1.843456030E-1,9.811017036E0,-1.000733256E0
1.777124269E0,1.843456030E-1,9.811017036E0,-9.959450364E-1
1.779505624E0,1.747692078E-1,9.815805435E0,-9.839745760E-1
1.781886249E0,1.627987176E-1,9.808623314E0,-9.791863561E-1
1.784269218E0,1.484341323E-1,9.806227684E0,-9.815804958E-1
1.786650885E0,1.460400373E-1,9.825381279E0,-9.839745760E-1
1.789032291E0,1.532223076E-1,9.811017036E0,-9.887627959E-1
1.791412916E0,1.604046077E-1,9.799045563E0,-9.959450364E-1
1.793793541E0,1.699810177E-1,9.803833961E0,-1.000733256E0
1.796174895E0,1.699810177E-1,9.801440239E0,-1.000733256E0
1.798556301E0,1.699810177E-1,9.789469719E0,-9.983391762E-1
1.800936926E0,1.939219981E-1,9.801440239E0,-9.887627959E-1
1.803317551E0,2.202570736E-1,9.815805435E0,-9.959450364E-1
1.805698906E0,2.178629786E-1,9.813410759E0,-9.887627959E-1
1.808080312E0,2.202570736E-1,9.806227684E0,-9.839745760E-1
1.810460937E0,2.298334837E-1,9.806227684E0,-1.010309696E0
1.812841562E0,2.202570736E-1,9.813410759E0,-1.024674296E0
1.815222916E0,2.034983933E-1,9.813410759E0,-1.027068377E0
1.817604322E0,2.034983933E-1,9.818199158E0,-1.024674296E0
1.819984947E0,2.011042982E-1,9.827775002E0,-1.034250736E0
1.822365572E0,1.795574129E-1,9.827775002E0,-1.046221137E0
1.824744322E0,1.771633178E-1,9.820592880E0,-1.043827057E0
1.827125729E0,1.915279031E-1,9.827775002E0,-1.046221137E0
1.829506354E0,1.915279031E-1,9.834958076E0,-1.060585737E0
1.831886979E0,2.034983933E-1,9.813410759E0,-1.055797458E0
1.834268333E0,2.250452787E-1,9.794258118E0,-1.029462457E0
1.836649739E0,2.250452787E-1,9.801440239E0,-9.959450364E-1
1.839030312E0,2.226511836E-1,9.808623314E0,-9.983391762E-1
1.841410937E0,2.298334837E-1,9.803833961E0,-1.019886017E0
1.843792343E0,2.298334837E-1,9.808623314E0,-1.019886017E0
1.846173749E0,2.202570736E-1,9.811017036E0,-1.015097857E0
1.848554322E0,2.082865983E-1,9.803833961E0,-9.959450364E-1
1.850934947E0,1.915279031E-1,9.815805435E0,-9.911568761E-1
1.853316354E0,1.699810177E-1,9.830168724E0,-9.959450364E-1
1.855697760E0,1.675869077E-1,9.832564354E0,-9.983391762E-1
1.858078333E0,1.627987176E-1,9.839746475E0,-9.983391762E-1
1.860458958E0,1.364636272E-1,9.842140198E0,-1.003127337E0
1.862840364E0,1.292813420E-1,9.844533920E0,-1.012703776E0
1.865222395E0,1.268872321E-1,9.830168724E0,-1.012703776E0
1.867602968E0,1.364636272E-1,9.822986603E0,-1.015097857E0
1.869983592E0,1.484341323E-1,9.839746475E0,-1.007915616E0
1.872364946E0,1.484341323E-1,9.839746475E0,-9.935510159E-1
1.874746353E0,1.627987176E-1,9.827775002E0,-9.815804958E-1
1.877126978E0,1.723751128E-1,9.827775002E0,-9.720040560E-1
1.879507603E0,1.819514930E-1,9.827775002E0,-9.624276757E-1
1.881888957E0,1.819514930E-1,9.820592880E0,-9.672158957E-1
1.884270363E0,1.771633178E-1,9.825381279E0,-9.720040560E-1
1.886650988E0,1.771633178E-1,9.827775002E0,-9.648218155E-1
1.889031613E0,1.891337931E-1,9.818199158E0,-9.600335956E-1
1.891412967E0,1.939219981E-1,9.818199158E0,-9.696099758E-1
1.893794373E0,1.963160932E-1,9.820592880E0,-9.648218155E-1
1.896174998E0,2.082865983E-1,9.830168724E0,-9.600335956E-1
1.898555623E0,2.011042982E-1,9.827775002E0,-9.672158957E-1
1.900936978E0,1.963160932E-1,9.813410759E0,-9.624276757E-1
1.903319322E0,2.058925033E-1,9.815805435E0,-9.528512955E-1
1.905699947E0,2.106806934E-1,9.815805435E0,-9.456689954E-1
1.908080572E0,1.939219981E-1,9.815805435E0,-9.408808351E-1
1.910461926E0,1.795574129E-1,9.820592880E0,-9.336984754E-1
1.912843332E0,1.771633178E-1,9.822986603E0,-9.432749152E-1
1.915223957E0,1.675869077E-1,9.834958076E0,-9.648218155E-1
1.917604582E0,1.651928127E-1,9.839746475E0,-9.672158957E-1
1.919985936E0,1.747692078E-1,9.842140198E0,-9.648218155E-1
1.922367343E0,1.723751128E-1,9.839746475E0,-9.696099758E-1
1.924747968E0,1.723751128E-1,9.839746475E0,-9.839745760E-1
1.927128593E0,1.891337931E-1,9.839746475E0,-9.791863561E-1
1.929509947E0,2.034983933E-1,9.830168724E0,-9.743981957E-1
1.931891353E0,1.987102032E-1,9.818199158E0,-9.767923355E-1
1.934271978E0,1.915279031E-1,9.815805435E0,-9.672158957E-1
1.936653436E0,1.867396981E-1,9.806227684E0,-9.600335956E-1
1.939034790E0,1.939219981E-1,9.806227684E0,-9.360926151E-1
1.941416197E0,1.939219981E-1,9.820592880E0,-9.313044548E-1
1.943794946E0,1.795574129E-1,9.822986603E0,-9.504572153E-1
1.946175571E0,1.675869077E-1,9.820592880E0,-9.456689954E-1
1.948556978E0,1.580105126E-1,9.827775002E0,-9.432749152E-1
1.950938384E0,1.436459273E-1,9.827775002E0,-9.552453756E-1
1.953318957E0,1.244931296E-1,9.832564354E0,-9.743981957E-1
1.955699582E0,1.244931296E-1,9.832564354E0,-9.887627959E-1
1.958080988E0,1.364636272E-1,9.839746475E0,-9.911568761E-1
1.960462394E0,1.484341323E-1,9.842140198E0,-1.000733256E0
1.962842967E0,1.580105126E-1,9.844533920E0,-1.015097857E0
1.965223592E0,1.627987176E-1,9.844533920E0,-1.010309696E0
1.967604999E0,1.651928127E-1,9.842140198E0,-9.935510159E-1
1.969986405E0,1.843456030E-1,9.846927643E0,-9.839745760E-1
1.972366978E0,1.915279031E-1,9.837351799E0,-9.720040560E-1
1.974747603E0,1.867396981E-1,9.832564354E0,-9.815804958E-1
1.977129009E0,1.915279031E-1,9.834958076E0,-9.887627959E-1
1.979510415E0,1.915279031E-1,9.834958076E0,-9.839745760E-1
1.981891041E0,1.843456030E-1,9.830168724E0,-9.863687158E-1
1.984271041E0,1.819514930E-1,9.827775002E0,-9.911568761E-1
1.986652447E0,1.867396981E-1,9.827775002E0,-1.003127337E0
1.989033854E0,1.891337931E-1,9.832564354E0,-9.887627959E-1
1.991414427E0,1.891337931E-1,9.832564354E0,-9.743981957E-1
1.993795052E0,1.939219981E-1,9.827775002E0,-9.887627959E-1
1.996176406E0,2.011042982E-1,9.822986603E0,-1.003127337E0
1.998557812E0,1.963160932E-1,9.825381279E0,-1.003127337E0
2.000938801E0,1.795574129E-1,9.822986603E0,-1.000733256E0
2.003319426E0,1.795574129E-1,9.813410759E0,-1.005521536E0
2.005700780E0,1.891337931E-1,9.820592880E0,-1.003127337E0
2.008082186E0,1.819514930E-1,9.834958076E0,-1.000733256E0
2.010462811E0,1.699810177E-1,9.832564354E0,-9.935510159E-1
2.012843436E0,1.627987176E-1,9.820592880E0,-9.935510159E-1
2.015224791E0,1.508282125E-1,9.808623314E0,-9.935510159E-1
2.017606197E0,1.436459273E-1,9.815805435E0,-9.863687158E-1
2.019986822E0,1.484341323E-1,9.820592880E0,-9.815804958E-1
2.022367447E0,1.388577372E-1,9.811017036E0,-9.767923355E-1
2.024749114E0,1.364636272E-1,9.815805435E0,-9.791863561E-1
2.027130520E0,1.412518322E-1,9.825381279E0,-9.815804958E-1
2.029511145E0,1.364636272E-1,9.837351799E0,-9.863687158E-1
2.031891770E0,1.436459273E-1,9.832564354E0,-9.887627959E-1
2.034273124E0,1.580105126E-1,9.822986603E0,-9.791863561E-1
2.036654531E0,1.651928127E-1,9.822986603E0,-9.815804958E-1
2.039035156E0,1.627987176E-1,9.825381279E0,-9.791863561E-1
2.041415781E0,1.508282125E-1,9.827775002E0,-9.696099758E-1
2.043797135E0,1.412518322E-1,9.825381279E0,-9.720040560E-1
2.046178541E0,1.580105126E-1,9.815805435E0,-9.696099758E-1
2.048559166E0,1.819514930E-1,9.801440239E0,-9.576395154E-1
2.050939791E0,1.723751128E-1,9.808623314E0,-9.624276757E-1
2.053321145E0,1.651928127E-1,9.806227684E0,-9.624276757E-1
2.055702551E0,1.771633178E-1,9.796651840E0,-9.720040560E-1
2.058083176E0,1.891337931E-1,9.801440239E0,-9.815804958E-1
2.060463801E0,2.058925033E-1,9.813410759E0,-9.743981957E-1
2.062845156E0,2.082865983E-1,9.803833961E0,-9.696099758E-1
2.065226666E0,2.011042982E-1,9.791864395E0,-9.648218155E-1
2.067607239E0,2.130747885E-1,9.801440239E0,-9.624276757E-1
2.069987864E0,2.274393737E-1,9.801440239E0,-9.576395154E-1
2.072369270E0,2.226511836E-1,9.799045563E0,-9.456689954E-1
2.074750676E0,2.202570736E-1,9.806227684E0,-9.504572153E-1
2.077131249E0,2.130747885E-1,9.825381279E0,-9.672158957E-1
2.079511874E0,2.082865983E-1,9.834958076E0,-9.743981957E-1
2.081893280E0,2.058925033E-1,9.839746475E0,-9.696099758E-1
2.084274687E0,2.082865983E-1,9.842140198E0,-9.648218155E-1
2.086655260E0,2.202570736E-1,9.842140198E0,-9.672158957E-1
2.089035885E0,2.154688835E-1,9.844533920E0,-9.720040560E-1
2.091417291E0,2.154688835E-1,9.830168724E0,-9.648218155E-1
2.093798697E0,2.298334837E-1,9.822986603E0,-9.624276757E-1
2.096179270E0,2.418039739E-1,9.815805435E0,-9.600335956E-1
2.098559895E0,2.298334837E-1,9.815805435E0,-9.432749152E-1
2.100941301E0,2.298334837E-1,9.822986603E0,-9.241221547E-1
2.103322291E0,2.441980839E-1,9.820592880E0,-9.265161753E-1
2.105702863E0,2.178629786E-1,9.818199158E0,-9.384866953E-1
2.108083488E0,2.178629786E-1,9.806227684E0,-9.456689954E-1
2.110464895E0,2.250452787E-1,9.803833961E0,-9.384866953E-1
2.112846301E0,2.154688835E-1,9.808623314E0,-9.360926151E-1
2.115226874E0,2.226511836E-1,9.813410759E0,-9.384866953E-1
2.117607499E0,2.226511836E-1,9.806227684E0,-9.408808351E-1
2.119988905E0,2.130747885E-1,9.806227684E0,-9.648218155E-1
2.122370311E0,2.130747885E-1,9.818199158E0,-9.791863561E-1
2.124750884E0,2.178629786E-1,9.818199158E0,-9.624276757E-1
2.127131509E0,2.130747885E-1,9.825381279E0,-9.408808351E-1
2.129513853E0,2.082865983E-1,9.834958076E0,-9.384866953E-1
2.131895207E0,2.274393737E-1,9.825381279E0,-9.552453756E-1
2.134275832E0,2.322275788E-1,9.825381279E0,-9.528512955E-1
2.136656457E0,2.274393737E-1,9.834958076E0,-9.265161753E-1
2.139037811E0,2.322275788E-1,9.834958076E0,-9.193339348E-1
2.141419217E0,2.370157838E-1,9.839746475E0,-9.289103150E-1
2.143798852E0,2.346216738E-1,9.842140198E0,-9.360926151E-1
2.146179477E0,2.274393737E-1,9.825381279E0,-9.360926151E-1
2.148560831E0,2.250452787E-1,9.825381279E0,-9.456689954E-1
2.150942238E0,2.226511836E-1,9.832564354E0,-9.456689954E-1
2.153322863E0,2.250452787E-1,9.832564354E0,-9.408808351E-1
2.155703488E0,2.226511836E-1,9.834958076E0,-9.313044548E-1
2.158084842E0,2.202570736E-1,9.834958076E0,-9.217280149E-1
2.160466248E0,2.178629786E-1,9.827775002E0,-9.408808351E-1
2.162846873E0,2.226511836E-1,9.825381279E0,-9.408808351E-1
2.165227498E0,2.250452787E-1,9.827775002E0,-9.384866953E-1
2.167608852E0,2.154688835E-1,9.839746475E0,-9.384866953E-1
2.169990258E0,2.154688835E-1,9.827775002E0,-9.193339348E-1
2.172370883E0,2.082865983E-1,9.811017036E0,-9.145457745E-1
2.174751508E0,2.011042982E-1,9.815805435E0,-9.241221547E-1
2.177132863E0,2.034983933E-1,9.822986603E0,-9.169397950E-1
2.179514947E0,1.963160932E-1,9.818199158E0,-9.145457745E-1
2.181895572E0,1.867396981E-1,9.813410759E0,-9.265161753E-1
2.184275364E0,1.771633178E-1,9.827775002E0,-9.313044548E-1
2.186656718E0,1.867396981E-1,9.832564354E0,-9.313044548E-1
2.189038124E0,1.867396981E-1,9.822986603E0,-9.432749152E-1
2.191418749E0,1.819514930E-1,9.837351799E0,-9.360926151E-1
2.193799582E0,1.915279031E-1,9.849322319E0,-9.265161753E-1
2.196180936E0,1.843456030E-1,9.846927643E0,-9.336984754E-1
2.198562343E0,1.795574129E-1,9.846927643E0,-9.384866953E-1
2.200942968E0,1.867396981E-1,9.844533920E0,-9.432749152E-1
2.203323593E0,1.915279031E-1,9.832564354E0,-9.456689954E-1
2.205704947E0,1.867396981E-1,9.832564354E0,-9.336984754E-1
2.208086353E0,1.795574129E-1,9.844533920E0,-9.265161753E-1
2.210466978E0,1.747692078E-1,9.849322319E0,-9.336984754E-1
2.212847603E0,1.675869077E-1,9.854109764E0,-9.289103150E-1
2.215228957E0,1.627987176E-1,9.854109764E0,-9.217280149E-1
2.217610363E0,1.651928127E-1,9.844533920E0,-9.217280149E-1
2.219990988E0,1.627987176E-1,9.830168724E0,-9.265161753E-1
2.222371613E0,1.484341323E-1,9.830168724E0,-9.360926151E-1
2.224754010E0,1.508282125E-1,9.834958076E0,-9.289103150E-1
2.227135416E0,1.723751128E-1,9.827775002E0,-9.097574949E-1
2.229516041E0,1.723751128E-1,9.813410759E0,-9.121516347E-1
2.231896666E0,1.699810177E-1,9.822986603E0,-9.193339348E-1
2.234278020E0,1.915279031E-1,9.837351799E0,-9.241221547E-1
2.236659426E0,2.034983933E-1,9.834958076E0,-9.241221547E-1
2.239039999E0,2.082865983E-1,9.822986603E0,-9.360926151E-1
2.241420624E0,1.939219981E-1,9.820592880E0,-9.456689954E-1
2.243802030E0,1.891337931E-1,9.834958076E0,-9.432749152E-1
2.246183437E0,1.963160932E-1,9.839746475E0,-9.504572153E-1
2.248564010E0,1.987102032E-1,9.830168724E0,-9.624276757E-1
2.250944635E0,2.082865983E-1,9.820592880E0,-9.696099758E-1
2.253326041E0,2.178629786E-1,9.822986603E0,-9.624276757E-1
2.255707447E0,2.154688835E-1,9.820592880E0,-9.672158957E-1
2.258089062E0,2.034983933E-1,9.830168724E0,-9.672158957E-1
2.260469687E0,1.939219981E-1,9.849322319E0,-9.576395154E-1
2.262849426E0,1.987102032E-1,9.842140198E0,-9.456689954E-1
2.265230833E0,2.011042982E-1,9.825381279E0,-9.384866953E-1
2.267611405E0,1.915279031E-1,9.827775002E0,-9.408808351E-1
2.269992030E0,1.915279031E-1,9.832564354E0,-9.336984754E-1
2.272373437E0,1.843456030E-1,9.832564354E0,-9.241221547E-1
2.274754895E0,1.891337931E-1,9.839746475E0,-9.360926151E-1
2.277135468E0,1.915279031E-1,9.834958076E0,-9.456689954E-1
2.279516093E0,1.819514930E-1,9.827775002E0,-9.504572153E-1
2.281897499E0,1.723751128E-1,9.830168724E0,-9.504572153E-1
2.284278905E0,1.795574129E-1,9.825381279E0,-9.456689954E-1
2.286659478E0,1.939219981E-1,9.822986603E0,-9.624276757E-1
2.289040103E0,2.058925033E-1,9.815805435E0,-9.672158957E-1
2.291421510E0,2.226511836E-1,9.815805435E0,-9.576395154E-1
2.293802916E0,2.274393737E-1,9.818199158E0,-9.552453756E-1
2.296183489E0,2.274393737E-1,9.818199158E0,-9.552453756E-1
2.298564114E0,2.465921789E-1,9.813410759E0,-9.648218155E-1
2.300945520E0,2.609567642E-1,9.806227684E0,-9.696099758E-1
2.303326405E0,2.513803840E-1,9.806227684E0,-9.576395154E-1
2.305706978E0,2.394098788E-1,9.806227684E0,-9.360926151E-1
2.308087603E0,2.274393737E-1,9.808623314E0,-9.289103150E-1
2.310469009E0,2.130747885E-1,9.815805435E0,-9.384866953E-1
2.312850416E0,2.011042982E-1,9.811017036E0,-9.456689954E-1
2.315230989E0,1.987102032E-1,9.822986603E0,-9.408808351E-1
2.317611614E0,1.963160932E-1,9.830168724E0,-9.456689954E-1
2.319993020E0,1.771633178E-1,9.827775002E0,-9.456689954E-1
2.322374530E0,1.723751128E-1,9.834958076E0,-9.384866953E-1
2.324755103E0,1.771633178E-1,9.842140198E0,-9.480631351E-1
2.327135728E0,1.699810177E-1,9.844533920E0,-9.576395154E-1
2.329517082E0,1.675869077E-1,9.844533920E0,-9.504572153E-1
2.331898488E0,1.699810177E-1,9.856505394E0,-9.528512955E-1
2.334279113E0,1.651928127E-1,9.854109764E0,-9.528512955E-1
2.336659738E0,1.580105126E-1,9.846927643E0,-9.576395154E-1
2.339041093E0,1.532223076E-1,9.839746475E0,-9.791863561E-1
2.341422499E0,1.508282125E-1,9.832564354E0,-9.791863561E-1
2.343802707E0,1.604046077E-1,9.839746475E0,-9.576395154E-1
2.346183332E0,1.723751128E-1,9.844533920E0,-9.624276757E-1
2.348564686E0,1.651928127E-1,9.834958076E0,-9.528512955E-1
2.350946092E0,1.580105126E-1,9.830168724E0,-9.360926151E-1
2.353326717E0,1.651928127E-1,9.825381279E0,-9.384866953E-1
2.355707342E0,1.699810177E-1,9.825381279E0,-9.504572153E-1
2.358088696E0,1.699810177E-1,9.820592880E0,-9.456689954E-1
2.360470103E0,1.795574129E-1,9.815805435E0,-9.241221547E-1
2.362850728E0,1.819514930E-1,9.815805435E0,-9.217280149E-1
2.365231353E0,1.819514930E-1,9.822986603E0,-9.217280149E-1
2.367612707E0,1.747692078E-1,9.820592880E0,-9.193339348E-1
2.369994113E0,1.699810177E-1,9.818199158E0,-9.265161753E-1
2.372374738E0,1.675869077E-1,9.827775002E0,-9.480631351E-1
2.374755363E0,1.580105126E-1,9.839746475E0,-9.624276757E-1
2.377137030E0,1.412518322E-1,9.846927643E0,-9.648218155E-1
2.379518436E0,1.364636272E-1,9.837351799E0,-9.648218155E-1
2.381899061E0,1.340695322E-1,9.834958076E0,-9.672158957E-1
2.384279582E0,1.244931296E-1,9.834958076E0,-9.600335956E-1
2.386660937E0,1.292813420E-1,9.832564354E0,-9.528512955E-1
2.389042343E0,1.388577372E-1,9.830168724E0,-9.600335956E-1
2.391422968E0,1.484341323E-1,9.827775002E0,-9.552453756E-1
2.393803593E0,1.508282125E-1,9.820592880E0,-9.384866953E-1
2.396184947E0,1.484341323E-1,9.825381279E0,-9.432749152E-1
2.398566353E0,1.364636272E-1,9.834958076E0,-9.504572153E-1
2.400946978E0,1.364636272E-1,9.822986603E0,-9.480631351E-1
2.403327603E0,1.340695322E-1,9.815805435E0,-9.408808351E-1
2.405708957E0,1.364636272E-1,9.815805435E0,-9.504572153E-1
2.408090364E0,1.508282125E-1,9.801440239E0,-9.672158957E-1
2.410470989E0,1.484341323E-1,9.801440239E0,-9.552453756E-1
2.412851614E0,1.388577372E-1,9.815805435E0,-9.648218155E-1
2.415232968E0,1.364636272E-1,9.813410759E0,-9.815804958E-1
2.417614374E0,1.316754371E-1,9.815805435E0,-9.672158957E-1
2.419994999E0,1.220990419E-1,9.813410759E0,-9.624276757E-1
2.422375624E0,1.268872321E-1,9.815805435E0,-9.791863561E-1
2.424756822E0,1.484341323E-1,9.832564354E0,-9.983391762E-1
2.427138229E0,1.556164175E-1,9.834958076E0,-1.000733256E0
2.429518854E0,1.556164175E-1,9.830168724E0,-9.863687158E-1
2.431899479E0,1.580105126E-1,9.839746475E0,-9.863687158E-1
2.434280833E0,1.508282125E-1,9.844533920E0,-9.887627959E-1
2.436662239E0,1.556164175E-1,9.837351799E0,-9.935510159E-1
2.439042864E0,1.627987176E-1,9.830168724E0,-9.983391762E-1
2.441423489E0,1.627987176E-1,9.830168724E0,-9.959450364E-1
2.443804843E0,1.723751128E-1,9.832564354E0,-1.005521536E0
2.446186249E0,1.627987176E-1,9.844533920E0,-9.983391762E-1
2.448566874E0,1.508282125E-1,9.837351799E0,-9.839745760E-1
2.450948332E0,1.532223076E-1,9.825381279E0,-9.959450364E-1
2.453329687E0,1.556164175E-1,9.834958076E0,-1.005521536E0
2.455711093E0,1.627987176E-1,9.834958076E0,-9.935510159E-1
2.458091718E0,1.699810177E-1,9.834958076E0,-9.911568761E-1
2.460472343E0,1.795574129E-1,9.822986603E0,-9.887627959E-1
2.462853697E0,1.939219981E-1,9.808623314E0,-9.743981957E-1
2.465235103E0,1.987102032E-1,9.811017036E0,-9.839745760E-1
2.467615728E0,1.963160932E-1,9.808623314E0,-9.983391762E-1
2.469996353E0,1.819514930E-1,9.815805435E0,-9.887627959E-1
2.472377707E0,1.891337931E-1,9.818199158E0,-9.911568761E-1
2.474758593E0,2.082865983E-1,9.815805435E0,-1.010309696E0
2.477139218E0,2.130747885E-1,9.815805435E0,-1.000733256E0
2.479519843E0,2.154688835E-1,9.811017036E0,-1.003127337E0
2.481901197E0,2.226511836E-1,9.811017036E0,-1.022280216E0
2.484282603E0,2.418039739E-1,9.825381279E0,-1.022280216E0
2.486663228E0,2.489862591E-1,9.832564354E0,-1.005521536E0
2.489043853E0,2.274393737E-1,9.825381279E0,-1.003127337E0
2.491425207E0,2.106806934E-1,9.825381279E0,-1.007915616E0
2.493806613E0,2.178629786E-1,9.827775002E0,-9.959450364E-1
2.496187238E0,2.226511836E-1,9.827775002E0,-9.815804958E-1
2.498567863E0,2.130747885E-1,9.839746475E0,-9.791863561E-1
2.500949218E0,2.058925033E-1,9.842140198E0,-9.743981957E-1
2.503330259E0,2.011042982E-1,9.832564354E0,-9.696099758E-1
2.505710884E0,1.819514930E-1,9.832564354E0,-9.576395154E-1
2.508091509E0,1.627987176E-1,9.827775002E0,-9.552453756E-1
2.510472863E0,1.675869077E-1,9.822986603E0,-9.672158957E-1
2.512855050E0,1.747692078E-1,9.830168724E0,-9.743981957E-1
2.515235675E0,1.675869077E-1,9.832564354E0,-9.720040560E-1
2.517616300E0,1.580105126E-1,9.834958076E0,-9.720040560E-1
2.519997654E0,1.556164175E-1,9.837351799E0,-9.815804958E-1
2.522379061E0,1.508282125E-1,9.830168724E0,-9.720040560E-1
2.524759686E0,1.556164175E-1,9.822986603E0,-9.648218155E-1
2.527140311E0,1.627987176E-1,9.818199158E0,-9.648218155E-1
2.529521665E0,1.580105126E-1,9.820592880E0,-9.672158957E-1
2.531903071E0,1.580105126E-1,9.830168724E0,-9.672158957E-1
2.534283644E0,1.604046077E-1,9.825381279E0,-9.576395154E-1
2.536664269E0,1.651928127E-1,9.818199158E0,-9.480631351E-1
2.539045675E0,1.651928127E-1,9.820592880E0,-9.456689954E-1
2.541427082E0,1.580105126E-1,9.827775002E0,-9.408808351E-1
2.543807186E0,1.532223076E-1,9.830168724E0,-9.408808351E-1
2.546187811E0,1.484341323E-1,9.830168724E0,-9.504572153E-1
2.548569165E0,1.627987176E-1,9.827775002E0,-9.456689954E-1
2.550950571E0,1.819514930E-1,9.827775002E0,-9.408808351E-1
2.553331613E0,1.675869077E-1,9.822986603E0,-9.384866953E-1
2.555712238E0,1.556164175E-1,9.815805435E0,-9.408808351E-1
2.558093175E0,1.771633178E-1,9.830168724E0,-9.600335956E-1
2.560474581E0,1.891337931E-1,9.830168724E0,-9.528512955E-1
2.562855206E0,1.867396981E-1,9.822986603E0,-9.528512955E-1
2.565235831E0,1.891337931E-1,9.837351799E0,-9.600335956E-1
2.567617186E0,2.011042982E-1,9.839746475E0,-9.648218155E-1
2.569998592E0,2.058925033E-1,9.837351799E0,-9.672158957E-1
2.572379217E0,2.011042982E-1,9.834958076E0,-9.767923355E-1
2.574759843E0,1.963160932E-1,9.839746475E0,-9.839745760E-1
2.577141197E0,1.939219981E-1,9.846927643E0,-9.863687158E-1
2.579522603E0,1.819514930E-1,9.844533920E0,-1.000733256E0
2.581903228E0,1.675869077E-1,9.839746475E0,-9.959450364E-1
2.584283592E0,1.532223076E-1,9.839746475E0,-9.815804958E-1
2.586664946E0,1.460400373E-1,9.839746475E0,-9.743981957E-1
2.589046353E0,1.460400373E-1,9.820592880E0,-9.743981957E-1
2.591426978E0,1.532223076E-1,9.808623314E0,-9.600335956E-1
2.593807603E0,1.580105126E-1,9.808623314E0,-9.456689954E-1
2.596188957E0,1.580105126E-1,9.811017036E0,-9.552453756E-1
2.598570363E0,1.651928127E-1,9.815805435E0,-9.504572153E-1
2.600950988E0,1.627987176E-1,9.815805435E0,-9.384866953E-1
2.603331613E0,1.651928127E-1,9.820592880E0,-9.504572153E-1
2.605712967E0,1.723751128E-1,9.830168724E0,-9.552453756E-1
2.608094373E0,1.819514930E-1,9.830168724E0,-9.600335956E-1
2.610474998E0,1.987102032E-1,9.832564354E0,-9.767923355E-1
2.612855623E0,2.034983933E-1,9.830168724E0,-9.863687158E-1
2.615236978E0,2.011042982E-1,9.832564354E0,-9.983391762E-1
2.617618384E0,2.082865983E-1,9.842140198E0,-1.003127337E0
2.619998957E0,2.130747885E-1,9.825381279E0,-9.887627959E-1
2.622379582E0,2.106806934E-1,9.830168724E0,-9.815804958E-1
2.624761092E0,2.154688835E-1,9.839746475E0,-9.791863561E-1
2.627142498E0,2.274393737E-1,9.827775002E0,-9.672158957E-1
2.629523071E0,2.226511836E-1,9.815805435E0,-9.576395154E-1
2.631903696E0,2.130747885E-1,9.815805435E0,-9.504572153E-1
2.634285102E0,2.011042982E-1,9.820592880E0,-9.624276757E-1
2.636666509E0,1.963160932E-1,9.815805435E0,-9.743981957E-1
2.639047134E0,1.915279031E-1,9.806227684E0,-9.672158957E-1
2.641427759E0,1.867396981E-1,9.803833961E0,-9.624276757E-1
2.643809687E0,2.011042982E-1,9.808623314E0,-9.600335956E-1
2.646191093E0,2.011042982E-1,9.808623314E0,-9.432749152E-1
2.648571666E0,1.891337931E-1,9.811017036E0,-9.600335956E-1
2.650952291E0,1.867396981E-1,9.803833961E0,-9.815804958E-1
2.653333697E0,2.154688835E-1,9.801440239E0,-9.767923355E-1
2.655715104E0,2.441980839E-1,9.808623314E0,-9.935510159E-1
2.658095729E0,2.513803840E-1,9.811017036E0,-9.983391762E-1
2.660476354E0,2.561685741E-1,9.820592880E0,-9.887627959E-1
2.662857395E0,2.705331445E-1,9.825381279E0,-9.935510159E-1
2.665238801E0,2.872918546E-1,9.818199158E0,-1.012703776E0
2.667619426E0,2.896859348E-1,9.811017036E0,-1.010309696E0
2.670000051E0,2.920800745E-1,9.818199158E0,-1.010309696E0
2.672381405E0,2.872918546E-1,9.834958076E0,-1.027068377E0
2.674763176E0,2.777154744E-1,9.849322319E0,-1.024674296E0
2.677143801E0,2.801095545E-1,9.839746475E0,-1.015097857E0
2.679524426E0,2.681390643E-1,9.834958076E0,-1.003127337E0
2.681905781E0,2.513803840E-1,9.820592880E0,-9.959450364E-1
2.684287187E0,2.489862591E-1,9.811017036E0,-9.791863561E-1
2.686667760E0,2.394098788E-1,9.815805435E0,-9.624276757E-1
2.689048385E0,2.154688835E-1,9.818199158E0,-9.552453756E-1
2.691429791E0,2.154688835E-1,9.827775002E0,-9.528512955E-1
2.693811197E0,2.178629786E-1,9.825381279E0,-9.648218155E-1
2.696191822E0,2.011042982E-1,9.815805435E0,-9.456689954E-1
2.698572447E0,1.939219981E-1,9.808623314E0,-9.432749152E-1
2.700953801E0,2.011042982E-1,9.801440239E0,-9.672158957E-1
2.703334374E0,2.082865983E-1,9.787075996E0,-9.504572153E-1
2.705714999E0,2.082865983E-1,9.796651840E0,-9.456689954E-1
2.708095520E0,2.202570736E-1,9.815805435E0,-9.743981957E-1
2.710476874E0,2.298334837E-1,9.818199158E0,-9.887627959E-1
2.712858280E0,2.322275788E-1,9.813410759E0,-9.767923355E-1
2.715238905E0,2.465921789E-1,9.801440239E0,-9.600335956E-1
2.717619530E0,2.465921789E-1,9.808623314E0,-9.552453756E-1
2.720000884E0,2.441980839E-1,9.818199158E0,-9.600335956E-1
2.722382290E0,2.370157838E-1,9.815805435E0,-9.648218155E-1
2.724762915E0,2.226511836E-1,9.815805435E0,-9.600335956E-1
2.727143540E0,2.154688835E-1,9.813410759E0,-9.480631351E-1
2.729524895E0,2.154688835E-1,9.803833961E0,-9.480631351E-1
2.731906301E0,2.178629786E-1,9.806227684E0,-9.480631351E-1
2.734286926E0,2.250452787E-1,9.808623314E0,-9.408808351E-1
2.736667551E0,2.418039739E-1,9.799045563E0,-9.408808351E-1
2.739048905E0,2.346216738E-1,9.806227684E0,-9.456689954E-1
2.741430311E0,2.346216738E-1,9.820592880E0,-9.408808351E-1
2.743813904E0,2.370157838E-1,9.818199158E0,-9.408808351E-1
2.746194529E0,2.346216738E-1,9.808623314E0,-9.528512955E-1
2.748575883E0,2.274393737E-1,9.815805435E0,-9.480631351E-1
2.750957290E0,2.298334837E-1,9.818199158E0,-9.480631351E-1
2.753337915E0,2.322275788E-1,9.813410759E0,-9.576395154E-1
2.755718540E0,2.178629786E-1,9.818199158E0,-9.576395154E-1
2.758099894E0,2.058925033E-1,9.820592880E0,-9.696099758E-1
2.760481300E0,2.058925033E-1,9.818199158E0,-9.839745760E-1
2.762861925E0,2.130747885E-1,9.803833961E0,-9.863687158E-1
2.765242550E0,2.082865983E-1,9.808623314E0,-9.743981957E-1
2.767623904E0,2.011042982E-1,9.815805435E0,-9.600335956E-1
2.770005311E0,2.011042982E-1,9.808623314E0,-9.648218155E-1
2.772383436E0,1.987102032E-1,9.803833961E0,-9.648218155E-1
2.774764061E0,1.987102032E-1,9.818199158E0,-9.528512955E-1
2.777145415E0,1.963160932E-1,9.827775002E0,-9.720040560E-1
2.779526821E0,2.011042982E-1,9.815805435E0,-9.791863561E-1
2.781907446E0,2.106806934E-1,9.822986603E0,-9.528512955E-1
2.784288853E0,2.178629786E-1,9.837351799E0,-9.384866953E-1
2.786670207E0,2.274393737E-1,9.832564354E0,-9.504572153E-1
2.789051613E0,2.346216738E-1,9.832564354E0,-9.767923355E-1
2.791432238E0,2.441980839E-1,9.844533920E0,-9.648218155E-1
2.793812863E0,2.537744641E-1,9.832564354E0,-9.552453756E-1
2.796194218E0,2.681390643E-1,9.830168724E0,-9.600335956E-1
2.798575624E0,2.657449543E-1,9.839746475E0,-9.480631351E-1
2.800956249E0,2.657449543E-1,9.830168724E0,-9.528512955E-1
2.803336874E0,2.585626841E-1,9.825381279E0,-9.696099758E-1
2.805718228E0,2.585626841E-1,9.820592880E0,-9.743981957E-1
2.808099634E0,2.681390643E-1,9.820592880E0,-9.720040560E-1
2.810480259E0,2.609567642E-1,9.820592880E0,-9.743981957E-1
2.812860884E0,2.561685741E-1,9.822986603E0,-9.863687158E-1
2.815242238E0,2.537744641E-1,9.822986603E0,-9.767923355E-1
2.817623645E0,2.513803840E-1,9.813410759E0,-9.600335956E-1
2.820004270E0,2.489862591E-1,9.806227684E0,-9.672158957E-1
2.822384895E0,2.537744641E-1,9.813410759E0,-9.815804958E-1
2.824767238E0,2.537744641E-1,9.830168724E0,-9.743981957E-1
2.827148644E0,2.418039739E-1,9.832564354E0,-9.672158957E-1
2.829529269E0,2.441980839E-1,9.827775002E0,-9.480631351E-1
2.831909894E0,2.418039739E-1,9.815805435E0,-9.432749152E-1
2.834291248E0,2.298334837E-1,9.822986603E0,-9.624276757E-1
2.836673175E0,2.441980839E-1,9.832564354E0,-9.624276757E-1
2.839053800E0,2.465921789E-1,9.832564354E0,-9.552453756E-1
2.841434425E0,2.465921789E-1,9.837351799E0,-9.504572153E-1
2.843815780E0,2.441980839E-1,9.842140198E0,-9.456689954E-1
2.846197186E0,2.394098788E-1,9.842140198E0,-9.552453756E-1
2.848577811E0,2.537744641E-1,9.832564354E0,-9.576395154E-1
2.850958436E0,2.465921789E-1,9.834958076E0,-9.504572153E-1
2.853339790E0,2.465921789E-1,9.851716042E0,-9.480631351E-1
2.855721196E0,2.657449543E-1,9.842140198E0,-9.456689954E-1
2.858101821E0,2.729272544E-1,9.832564354E0,-9.456689954E-1
2.860482446E0,2.585626841E-1,9.822986603E0,-9.480631351E-1
2.862863800E0,2.489862591E-1,9.813410759E0,-9.576395154E-1
2.865243123E0,2.705331445E-1,9.815805435E0,-9.600335956E-1
2.867623748E0,2.825036645E-1,9.811017036E0,-9.528512955E-1
2.870004373E0,2.657449543E-1,9.808623314E0,-9.504572153E-1
2.872385727E0,2.657449543E-1,9.813410759E0,-9.552453756E-1
2.874767290E0,2.753213346E-1,9.820592880E0,-9.528512955E-1
2.877147915E0,2.657449543E-1,9.820592880E0,-9.384866953E-1
2.879528540E0,2.537744641E-1,9.815805435E0,-9.313044548E-1
2.881909894E0,2.513803840E-1,9.808623314E0,-9.241221547E-1
2.884291301E0,2.537744641E-1,9.808623314E0,-9.217280149E-1
2.886671926E0,2.633508742E-1,9.815805435E0,-9.360926151E-1
2.889052551E0,2.633508742E-1,9.808623314E0,-9.432749152E-1
2.891433905E0,2.585626841E-1,9.803833961E0,-9.217280149E-1
2.893815311E0,2.585626841E-1,9.811017036E0,-9.241221547E-1
2.896195936E0,2.633508742E-1,9.811017036E0,-9.480631351E-1
2.898576561E0,2.777154744E-1,9.815805435E0,-9.504572153E-1
2.900957185E0,2.825036645E-1,9.818199158E0,-9.456689954E-1
2.903338801E0,2.825036645E-1,9.830168724E0,-9.504572153E-1
2.905719426E0,2.920800745E-1,9.839746475E0,-9.648218155E-1
2.908100051E0,2.992623448E-1,9.842140198E0,-9.600335956E-1
2.910481406E0,2.920800745E-1,9.842140198E0,-9.648218155E-1
2.912862812E0,2.705331445E-1,9.837351799E0,-9.743981957E-1
2.915243437E0,2.633508742E-1,9.830168724E0,-9.576395154E-1
2.917624062E0,2.825036645E-1,9.822986603E0,-9.504572153E-1
2.920005416E0,2.777154744E-1,9.815805435E0,-9.480631351E-1
2.922386822E0,2.633508742E-1,9.813410759E0,-9.384866953E-1
2.924767447E0,2.561685741E-1,9.827775002E0,-9.289103150E-1
2.927148072E0,2.298334837E-1,9.820592880E0,-9.289103150E-1
2.929529426E0,2.202570736E-1,9.803833961E0,-9.384866953E-1
2.931910833E0,2.202570736E-1,9.808623314E0,-9.360926151E-1
2.934291458E0,2.202570736E-1,9.808623314E0,-9.289103150E-1
2.936672083E0,2.178629786E-1,9.820592880E0,-9.384866953E-1
2.939053437E0,2.298334837E-1,9.837351799E0,-9.456689954E-1
2.941434843E0,2.322275788E-1,9.839746475E0,-9.504572153E-1
2.943815468E0,2.202570736E-1,9.834958076E0,-9.528512955E-1
2.946196613E0,2.346216738E-1,9.815805435E0,-9.576395154E-1
2.948577967E0,2.465921789E-1,9.813410759E0,-9.600335956E-1
2.950959373E0,2.513803840E-1,9.825381279E0,-9.648218155E-1
2.953339998E0,2.489862591E-1,9.822986603E0,-9.815804958E-1
2.955720623E0,2.537744641E-1,9.825381279E0,-9.791863561E-1
2.958102030E0,2.633508742E-1,9.827775002E0,-9.791863561E-1
2.960483436E0,2.513803840E-1,9.825381279E0,-9.815804958E-1
2.962866249E0,2.394098788E-1,9.830168724E0,-9.815804958E-1
2.965246874E0,2.322275788E-1,9.846927643E0,-9.815804958E-1
2.967628280E0,2.274393737E-1,9.854109764E0,-9.863687158E-1
2.970009686E0,2.274393737E-1,9.846927643E0,-9.887627959E-1
2.972390259E0,2.274393737E-1,9.849322319E0,-9.887627959E-1
2.974770884E0,2.226511836E-1,9.844533920E0,-9.935510159E-1
2.977152291E0,2.130747885E-1,9.834958076E0,-9.935510159E-1
2.979533697E0,2.082865983E-1,9.842140198E0,-9.911568761E-1
2.981914270E0,2.058925033E-1,9.846927643E0,-9.911568761E-1
2.984294895E0,1.963160932E-1,9.832564354E0,-9.911568761E-1
2.986676301E0,1.963160932E-1,9.827775002E0,-9.791863561E-1
2.989057707E0,2.226511836E-1,9.832564354E0,-9.696099758E-1
2.991438280E0,2.322275788E-1,9.832564354E0,-9.791863561E-1
2.993818905E0,2.250452787E-1,9.827775002E0,-9.720040560E-1
2.996200311E0,2.346216738E-1,9.825381279E0,-9.624276757E-1
2.998581718E0,2.465921789E-1,9.827775002E0,-9.743981957E-1
3.000962291E0,2.561685741E-1,9.822986603E0,-9.720040560E-1
3.003342916E0,2.633508742E-1,9.815805435E0,-9.672158957E-1
3.005724322E0,2.609567642E-1,9.825381279E0,-9.743981957E-1
3.008105728E0,2.513803840E-1,9.842140198E0,-9.767923355E-1
3.010486301E0,2.513803840E-1,9.837351799E0,-9.696099758E-1
3.012866926E0,2.513803840E-1,9.820592880E0,-9.696099758E-1
3.015248332E0,2.322275788E-1,9.820592880E0,-9.624276757E-1
3.017629738E0,2.250452787E-1,9.827775002E0,-9.576395154E-1
3.020010311E0,2.298334837E-1,9.832564354E0,-9.504572153E-1
3.022390936E0,2.226511836E-1,9.827775002E0,-9.432749152E-1
3.024771821E0,2.178629786E-1,9.815805435E0,-9.480631351E-1
3.027153227E0,2.202570736E-1,9.820592880E0,-9.360926151E-1
3.029533853E0,2.226511836E-1,9.815805435E0,-9.265161753E-1
3.031914478E0,2.250452787E-1,9.799045563E0,-9.217280149E-1
3.034295832E0,2.106806934E-1,9.803833961E0,-9.169397950E-1
3.036677238E0,1.987102032E-1,9.820592880E0,-9.001811147E-1
3.039057811E0,1.939219981E-1,9.825381279E0,-8.977869749E-1
3.041438436E0,1.939219981E-1,9.830168724E0,-9.169397950E-1
3.043819842E0,1.963160932E-1,9.842140198E0,-9.265161753E-1
3.046201249E0,2.011042982E-1,9.832564354E0,-9.193339348E-1
3.048581874E0,1.987102032E-1,9.815805435E0,-9.073634148E-1
3.050962499E0,1.867396981E-1,9.820592880E0,-9.049693346E-1
3.053343853E0,1.939219981E-1,9.837351799E0,-9.265161753E-1
3.055725259E0,2.011042982E-1,9.830168724E0,-9.313044548E-1
3.058105884E0,2.011042982E-1,9.815805435E0,-9.193339348E-1
3.060486509E0,2.082865983E-1,9.830168724E0,-9.145457745E-1
3.062867863E0,2.178629786E-1,9.839746475E0,-9.073634148E-1
3.065250103E0,2.226511836E-1,9.834958076E0,-9.193339348E-1
3.067630728E0,2.154688835E-1,9.832564354E0,-9.336984754E-1
3.070011353E0,2.034983933E-1,9.827775002E0,-9.313044548E-1
3.072392707E0,2.058925033E-1,9.830168724E0,-9.217280149E-1
3.074773279E0,2.178629786E-1,9.834958076E0,-9.193339348E-1
3.077153904E0,2.154688835E-1,9.830168724E0,-9.313044548E-1
3.079534529E0,2.034983933E-1,9.837351799E0,-9.384866953E-1
3.081915883E0,2.226511836E-1,9.834958076E0,-9.504572153E-1
3.084297289E0,2.322275788E-1,9.830168724E0,-9.576395154E-1
3.086677914E0,2.082865983E-1,9.832564354E0,-9.480631351E-1
3.089058539E0,2.034983933E-1,9.832564354E0,-9.456689954E-1
3.091439894E0,2.082865983E-1,9.825381279E0,-9.432749152E-1
3.093823020E0,2.058925033E-1,9.822986603E0,-9.408808351E-1
3.096203645E0,2.178629786E-1,9.827775002E0,-9.480631351E-1
3.098584270E0,2.226511836E-1,9.832564354E0,-9.552453756E-1
3.100965624E0,2.154688835E-1,9.832564354E0,-9.648218155E-1
3.103345206E0,2.130747885E-1,9.834958076E0,-9.696099758E-1
3.105725831E0,2.106806934E-1,9.839746475E0,-9.791863561E-1
3.108106456E0,2.106806934E-1,9.846927643E0,-9.935510159E-1
3.110487810E0,2.202570736E-1,9.849322319E0,-9.935510159E-1
3.112869217E0,2.346216738E-1,9.839746475E0,-9.887627959E-1
3.115249842E0,2.370157838E-1,9.820592880E0,-9.959450364E-1
3.117630467E0,2.298334837E-1,9.815805435E0,-1.003127337E0
3.120011821E0,2.250452787E-1,9.825381279E0,-9.887627959E-1
3.122393227E0,2.202570736E-1,9.827775002E0,-9.815804958E-1
3.124773852E0,2.250452787E-1,9.820592880E0,-9.767923355E-1
3.127154477E0,2.202570736E-1,9.825381279E0,-9.672158957E-1
3.129535831E0,2.154688835E-1,9.822986603E0,-9.672158957E-1
3.131917237E0,2.106806934E-1,9.818199158E0,-9.815804958E-1
3.134297862E0,2.106806934E-1,9.820592880E0,-1.000733256E0
3.136678487E0,2.082865983E-1,9.825381279E0,-1.017491937E0
3.139059842E0,2.058925033E-1,9.830168724E0,-1.024674296E0
3.141441248E0,2.130747885E-1,9.839746475E0,-1.005521536E0
3.143821873E0,2.130747885E-1,9.844533920E0,-1.000733256E0
3.146201508E0,2.154688835E-1,9.832564354E0,-9.959450364E-1
3.148582914E0,2.274393737E-1,9.825381279E0,-9.911568761E-1
3.150964320E0,2.394098788E-1,9.822986603E0,-9.959450364E-1
3.153344893E0,2.346216738E-1,9.830168724E0,-9.983391762E-1
3.155725518E0,2.346216738E-1,9.832564354E0,-1.000733256E0
3.158107238E0,2.441980839E-1,9.815805435E0,-9.935510159E-1
3.160488644E0,2.322275788E-1,9.820592880E0,-1.000733256E0
3.162869217E0,2.154688835E-1,9.832564354E0,-9.983391762E-1
3.165249842E0,2.202570736E-1,9.830168724E0,-9.983391762E-1
3.167631248E0,2.202570736E-1,9.820592880E0,-9.935510159E-1
3.170012654E0,2.058925033E-1,9.822986603E0,-9.863687158E-1
3.172393227E0,1.987102032E-1,9.827775002E0,-9.935510159E-1
3.174773852E0,1.987102032E-1,9.834958076E0,-9.863687158E-1
3.177155258E0,2.082865983E-1,9.830168724E0,-9.863687158E-1
3.179536665E0,2.130747885E-1,9.820592880E0,-9.935510159E-1
3.181917238E0,2.130747885E-1,9.813410759E0,-9.863687158E-1
3.184297343E0,2.274393737E-1,9.808623314E0,-9.720040560E-1
3.186678749E0,2.489862591E-1,9.813410759E0,-9.720040560E-1
3.189060155E0,2.370157838E-1,9.813410759E0,-9.767923355E-1
3.191440728E0,2.298334837E-1,9.801440239E0,-9.720040560E-1
3.193821353E0,2.489862591E-1,9.803833961E0,-9.720040560E-1
3.196202759E0,2.633508742E-1,9.801440239E0,-9.743981957E-1
3.198584165E0,2.705331445E-1,9.794258118E0,-9.743981957E-1
3.200964790E0,2.585626841E-1,9.801440239E0,-9.696099758E-1
3.203345415E0,2.441980839E-1,9.808623314E0,-9.576395154E-1
3.205726770E0,2.394098788E-1,9.815805435E0,-9.624276757E-1
3.208108176E0,2.394098788E-1,9.832564354E0,-9.624276757E-1
3.210488801E0,2.250452787E-1,9.834958076E0,-9.504572153E-1
3.212869426E0,2.034983933E-1,9.825381279E0,-9.528512955E-1
3.215250780E0,2.058925033E-1,9.827775002E0,-9.720040560E-1
3.217632186E0,2.178629786E-1,9.832564354E0,-9.767923355E-1
3.220012811E0,2.274393737E-1,9.827775002E0,-9.815804958E-1
3.222394738E0,2.178629786E-1,9.825381279E0,-9.887627959E-1
3.224774581E0,2.154688835E-1,9.839746475E0,-9.767923355E-1
3.227155988E0,2.298334837E-1,9.851716042E0,-9.815804958E-1
3.229536613E0,2.370157838E-1,9.854109764E0,-9.983391762E-1
3.231917238E0,2.537744641E-1,9.842140198E0,-9.911568761E-1
3.234298592E0,2.705331445E-1,9.832564354E0,-9.696099758E-1
3.236679998E0,2.801095545E-1,9.842140198E0,-9.624276757E-1
3.239060623E0,2.801095545E-1,9.837351799E0,-9.696099758E-1
3.241441248E0,2.777154744E-1,9.830168724E0,-9.743981957E-1
3.243822602E0,2.825036645E-1,9.825381279E0,-9.672158957E-1
3.246204009E0,2.753213346E-1,9.820592880E0,-9.528512955E-1
3.248584634E0,2.657449543E-1,9.813410759E0,-9.480631351E-1
3.250965259E0,2.777154744E-1,9.799045563E0,-9.360926151E-1
3.253346613E0,2.848977447E-1,9.803833961E0,-9.289103150E-1
3.255728019E0,2.729272544E-1,9.813410759E0,-9.408808351E-1
3.258108644E0,2.657449543E-1,9.813410759E0,-9.480631351E-1
3.260489269E0,2.681390643E-1,9.803833961E0,-9.528512955E-1
3.262870623E0,2.585626841E-1,9.806227684E0,-9.600335956E-1
3.265251821E0,2.585626841E-1,9.806227684E0,-9.528512955E-1
3.267632446E0,2.561685741E-1,9.818199158E0,-9.600335956E-1
3.270013071E0,2.513803840E-1,9.832564354E0,-9.839745760E-1
3.272394426E0,2.561685741E-1,9.839746475E0,-9.911568761E-1
3.274777030E0,2.561685741E-1,9.846927643E0,-9.935510159E-1
3.277157655E0,2.585626841E-1,9.844533920E0,-9.839745760E-1
3.279538280E0,2.633508742E-1,9.842140198E0,-9.839745760E-1
3.281919686E0,2.513803840E-1,9.832564354E0,-9.815804958E-1
3.284301092E0,2.537744641E-1,9.825381279E0,-9.672158957E-1
3.286681561E0,2.657449543E-1,9.825381279E0,-9.672158957E-1
3.289062186E0,2.753213346E-1,9.830168724E0,-9.600335956E-1
3.291443592E0,2.705331445E-1,9.830168724E0,-9.456689954E-1
3.293824999E0,2.561685741E-1,9.811017036E0,-9.456689954E-1
3.296205572E0,2.537744641E-1,9.799045563E0,-9.360926151E-1
3.298586197E0,2.418039739E-1,9.799045563E0,-9.289103150E-1
3.300967603E0,2.298334837E-1,9.806227684E0,-9.241221547E-1
3.303347914E0,2.346216738E-1,9.803833961E0,-9.217280149E-1
3.305728487E0,2.418039739E-1,9.789469719E0,-9.313044548E-1
3.308109112E0,2.394098788E-1,9.801440239E0,-9.432749152E-1
3.310490518E0,2.370157838E-1,9.811017036E0,-9.576395154E-1
3.312871925E0,2.418039739E-1,9.811017036E0,-9.528512955E-1
3.315252550E0,2.513803840E-1,9.813410759E0,-9.480631351E-1
3.317633175E0,2.657449543E-1,9.815805435E0,-9.672158957E-1
3.320014529E0,2.609567642E-1,9.827775002E0,-9.863687158E-1
3.322395935E0,2.513803840E-1,9.818199158E0,-9.839745760E-1
3.324776560E0,2.418039739E-1,9.811017036E0,-9.887627959E-1
3.327157185E0,2.274393737E-1,9.818199158E0,-1.005521536E0
3.329538539E0,2.274393737E-1,9.830168724E0,-9.959450364E-1
3.331919945E0,2.250452787E-1,9.830168724E0,-9.839745760E-1
3.334300570E0,2.202570736E-1,9.834958076E0,-9.743981957E-1
3.336681195E0,2.298334837E-1,9.837351799E0,-9.815804958E-1
3.339062550E0,2.226511836E-1,9.837351799E0,-9.959450364E-1
3.341443956E0,2.202570736E-1,9.837351799E0,-9.767923355E-1
3.343825572E0,2.346216738E-1,9.822986603E0,-9.624276757E-1
3.346206197E0,2.298334837E-1,9.825381279E0,-9.720040560E-1
3.348587551E0,2.226511836E-1,9.842140198E0,-9.791863561E-1
3.350969477E0,2.298334837E-1,9.837351799E0,-9.743981957E-1
3.353350102E0,2.418039739E-1,9.827775002E0,-9.839745760E-1
3.355730727E0,2.513803840E-1,9.822986603E0,-9.935510159E-1
3.358112081E0,2.561685741E-1,9.815805435E0,-9.959450364E-1
3.360493488E0,2.633508742E-1,9.822986603E0,-1.007915616E0
3.362874113E0,2.561685741E-1,9.830168724E0,-1.010309696E0
3.365254738E0,2.537744641E-1,9.822986603E0,-1.007915616E0
3.367636092E0,2.729272544E-1,9.820592880E0,-1.007915616E0
3.370017498E0,2.633508742E-1,9.822986603E0,-1.007915616E0
3.372398123E0,2.489862591E-1,9.818199158E0,-1.012703776E0
3.374778748E0,2.513803840E-1,9.815805435E0,-1.017491937E0
3.377160102E0,2.465921789E-1,9.813410759E0,-9.983391762E-1
3.379541508E0,2.465921789E-1,9.813410759E0,-9.720040560E-1
3.381922133E0,2.561685741E-1,9.808623314E0,-9.696099758E-1
3.384301144E0,2.489862591E-1,9.811017036E0,-9.743981957E-1
3.386682499E0,2.418039739E-1,9.820592880E0,-9.791863561E-1
3.389063905E0,2.489862591E-1,9.818199158E0,-9.720040560E-1
3.391444530E0,2.585626841E-1,9.822986603E0,-9.648218155E-1
3.393825155E0,2.633508742E-1,9.822986603E0,-9.696099758E-1
3.396206561E0,2.609567642E-1,9.818199158E0,-9.672158957E-1
3.398587967E0,2.441980839E-1,9.832564354E0,-9.743981957E-1
3.400968540E0,2.370157838E-1,9.830168724E0,-9.767923355E-1
3.403349165E0,2.322275788E-1,9.830168724E0,-9.911568761E-1
3.405730572E0,2.298334837E-1,9.842140198E0,-1.007915616E0
3.408111978E0,2.370157838E-1,9.832564354E0,-9.911568761E-1
3.410492551E0,2.250452787E-1,9.825381279E0,-9.863687158E-1
3.412873176E0,2.298334837E-1,9.830168724E0,-1.000733256E0
3.415255051E0,2.561685741E-1,9.837351799E0,-9.959450364E-1
3.417636457E0,2.609567642E-1,9.830168724E0,-9.767923355E-1
3.420017030E0,2.513803840E-1,9.820592880E0,-9.839745760E-1
3.422397655E0,2.346216738E-1,9.822986603E0,-9.863687158E-1
3.424778592E0,2.322275788E-1,9.818199158E0,-9.767923355E-1
3.427159999E0,2.465921789E-1,9.813410759E0,-9.720040560E-1
3.429540572E0,2.513803840E-1,9.813410759E0,-9.720040560E-1
3.431921197E0,2.657449543E-1,9.811017036E0,-9.696099758E-1
3.434302603E0,2.848977447E-1,9.801440239E0,-9.696099758E-1
3.436684009E0,2.777154744E-1,9.796651840E0,-9.624276757E-1
3.439064634E0,2.681390643E-1,9.803833961E0,-9.552453756E-1
3.441445259E0,2.657449543E-1,9.808623314E0,-9.624276757E-1
3.443826613E0,2.705331445E-1,9.813410759E0,-9.552453756E-1
3.446208019E0,2.729272544E-1,9.825381279E0,-9.552453756E-1
3.448588644E0,2.753213346E-1,9.832564354E0,-9.767923355E-1
3.450969269E0,2.777154744E-1,9.827775002E0,-9.791863561E-1
3.453350624E0,2.609567642E-1,9.820592880E0,-9.672158957E-1
3.455732030E0,2.489862591E-1,9.827775002E0,-9.815804958E-1
3.458112655E0,2.561685741E-1,9.844533920E0,-9.887627959E-1
3.460493280E0,2.585626841E-1,9.837351799E0,-9.863687158E-1
3.462876665E0,2.537744641E-1,9.837351799E0,-9.911568761E-1
3.465258071E0,2.633508742E-1,9.844533920E0,-9.815804958E-1
3.467638696E0,2.561685741E-1,9.839746475E0,-9.767923355E-1
3.470019321E0,2.346216738E-1,9.837351799E0,-9.672158957E-1
3.472400675E0,2.322275788E-1,9.844533920E0,-9.624276757E-1
3.474781821E0,2.322275788E-1,9.844533920E0,-9.696099758E-1
3.477162446E0,2.298334837E-1,9.839746475E0,-9.720040560E-1
3.479541561E0,2.418039739E-1,9.832564354E0,-9.696099758E-1
3.481922915E0,2.346216738E-1,9.820592880E0,-9.600335956E-1
3.484304321E0,2.226511836E-1,9.803833961E0,-9.528512955E-1
3.486684946E0,2.298334837E-1,9.808623314E0,-9.504572153E-1
3.489065571E0,2.274393737E-1,9.825381279E0,-9.528512955E-1
3.491446925E0,2.298334837E-1,9.818199158E0,-9.528512955E-1
3.493828332E0,2.202570736E-1,9.801440239E0,-9.432749152E-1
3.496208957E0,2.274393737E-1,9.799045563E0,-9.384866953E-1
3.498589582E0,2.370157838E-1,9.818199158E0,-9.456689954E-1
3.500970988E0,2.370157838E-1,9.820592880E0,-9.528512955E-1
3.503352029E0,2.465921789E-1,9.808623314E0,-9.528512955E-1
3.505732602E0,2.513803840E-1,9.811017036E0,-9.672158957E-1
3.508113227E0,2.489862591E-1,9.815805435E0,-9.743981957E-1
3.510494633E0,2.394098788E-1,9.818199158E0,-9.696099758E-1
3.512876039E0,2.298334837E-1,9.832564354E0,-9.672158957E-1
3.515256612E0,2.178629786E-1,9.837351799E0,-9.624276757E-1
3.517637237E0,2.058925033E-1,9.827775002E0,-9.552453756E-1
3.520018644E0,2.082865983E-1,9.830168724E0,-9.528512955E-1
3.522400050E0,2.154688835E-1,9.827775002E0,-9.552453756E-1
3.524780623E0,1.915279031E-1,9.820592880E0,-9.624276757E-1
3.527161248E0,1.771633178E-1,9.820592880E0,-9.648218155E-1
3.529542654E0,1.843456030E-1,9.830168724E0,-9.504572153E-1
3.531924060E0,1.915279031E-1,9.839746475E0,-9.528512955E-1
3.534304685E0,1.939219981E-1,9.842140198E0,-9.528512955E-1
3.536685310E0,1.915279031E-1,9.839746475E0,-9.432749152E-1
3.539066664E0,1.915279031E-1,9.837351799E0,-9.408808351E-1
3.541448071E0,1.939219981E-1,9.834958076E0,-9.504572153E-1
3.543829633E0,2.034983933E-1,9.830168724E0,-9.360926151E-1
3.546209739E0,2.082865983E-1,9.815805435E0,-9.313044548E-1
3.548591093E0,2.130747885E-1,9.811017036E0,-9.408808351E-1
3.550972499E0,2.298334837E-1,9.813410759E0,-9.360926151E-1
3.553353124E0,2.418039739E-1,9.813410759E0,-9.360926151E-1
3.555733749E0,2.394098788E-1,9.815805435E0,-9.336984754E-1
3.558115103E0,2.441980839E-1,9.806227684E0,-9.408808351E-1
3.560496510E0,2.394098788E-1,9.803833961E0,-9.480631351E-1
3.562877135E0,2.394098788E-1,9.808623314E0,-9.432749152E-1
3.565258228E0,2.465921789E-1,9.808623314E0,-9.504572153E-1
3.567639582E0,2.513803840E-1,9.818199158E0,-9.504572153E-1
3.570020988E0,2.465921789E-1,9.818199158E0,-9.432749152E-1
3.572401613E0,2.274393737E-1,9.825381279E0,-9.480631351E-1
3.574782238E0,2.226511836E-1,9.834958076E0,-9.504572153E-1
3.577163592E0,2.394098788E-1,9.842140198E0,-9.528512955E-1
3.579544998E0,2.465921789E-1,9.837351799E0,-9.624276757E-1
3.581925623E0,2.418039739E-1,9.844533920E0,-9.624276757E-1
3.584305258E0,2.489862591E-1,9.854109764E0,-9.600335956E-1
3.586686613E0,2.513803840E-1,9.856505394E0,-9.528512955E-1
3.589068019E0,2.489862591E-1,9.851716042E0,-9.456689954E-1
3.591448644E0,2.609567642E-1,9.837351799E0,-9.480631351E-1
3.593829269E0,2.537744641E-1,9.839746475E0,-9.432749152E-1
3.596210675E0,2.465921789E-1,9.834958076E0,-9.217280149E-1
3.598592081E0,2.513803840E-1,9.822986603E0,-9.049693346E-1
3.600972654E0,2.513803840E-1,9.811017036E0,-9.145457745E-1
3.603353279E0,2.681390643E-1,9.811017036E0,-9.217280149E-1
3.605734685E0,2.705331445E-1,9.820592880E0,-9.145457745E-1
3.608116613E0,2.657449543E-1,9.815805435E0,-9.049693346E-1
3.610497186E0,2.681390643E-1,9.813410759E0,-9.121516347E-1
3.612877811E0,2.561685741E-1,9.827775002E0,-9.193339348E-1
3.615259217E0,2.537744641E-1,9.827775002E0,-9.360926151E-1
3.617640623E0,2.657449543E-1,9.830168724E0,-9.552453756E-1
3.620021196E0,2.681390643E-1,9.832564354E0,-9.552453756E-1
3.622401821E0,2.489862591E-1,9.825381279E0,-9.624276757E-1
3.624783644E0,2.346216738E-1,9.832564354E0,-9.696099758E-1
3.627165051E0,2.561685741E-1,9.849322319E0,-9.648218155E-1
3.629545676E0,2.633508742E-1,9.858899117E0,-9.456689954E-1
3.631926301E0,2.513803840E-1,9.856505394E0,-9.384866953E-1
3.634307655E0,2.441980839E-1,9.856505394E0,-9.504572153E-1
3.636689061E0,2.441980839E-1,9.858899117E0,-9.528512955E-1
3.639069686E0,2.465921789E-1,9.854109764E0,-9.480631351E-1
3.641450311E0,2.465921789E-1,9.844533920E0,-9.432749152E-1
3.643831665E0,2.585626841E-1,9.839746475E0,-9.313044548E-1
3.646213071E0,2.633508742E-1,9.827775002E0,-9.145457745E-1
3.648593696E0,2.633508742E-1,9.815805435E0,-9.121516347E-1
3.650974321E0,2.609567642E-1,9.820592880E0,-9.169397950E-1
3.653355676E0,2.585626841E-1,9.822986603E0,-9.121516347E-1
3.655737082E0,2.585626841E-1,9.820592880E0,-9.121516347E-1
3.658117707E0,2.513803840E-1,9.822986603E0,-9.193339348E-1
3.660498332E0,2.537744641E-1,9.825381279E0,-9.336984754E-1
3.662879686E0,2.465921789E-1,9.832564354E0,-9.313044548E-1
3.665261508E0,2.441980839E-1,9.827775002E0,-9.313044548E-1
3.667642133E0,2.418039739E-1,9.820592880E0,-9.672158957E-1
3.670022758E0,2.465921789E-1,9.822986603E0,-9.696099758E-1
3.672404633E0,2.705331445E-1,9.815805435E0,-9.600335956E-1
3.674786040E0,2.753213346E-1,9.803833961E0,-9.552453756E-1
3.677166613E0,2.801095545E-1,9.813410759E0,-9.552453756E-1
3.679547238E0,2.705331445E-1,9.822986603E0,-9.672158957E-1
3.681928644E0,2.729272544E-1,9.815805435E0,-9.504572153E-1
3.684310050E0,2.705331445E-1,9.811017036E0,-9.217280149E-1
3.686690623E0,2.705331445E-1,9.815805435E0,-9.121516347E-1
3.689071248E0,2.753213346E-1,9.813410759E0,-9.217280149E-1
3.691452654E0,2.609567642E-1,9.808623314E0,-9.217280149E-1
3.693834061E0,2.633508742E-1,9.820592880E0,-9.169397950E-1
3.696214633E0,2.729272544E-1,9.827775002E0,-9.217280149E-1
3.698595258E0,2.537744641E-1,9.834958076E0,-9.241221547E-1
3.700976665E0,2.346216738E-1,9.837351799E0,-9.456689954E-1
3.703356508E0,2.322275788E-1,9.832564354E0,-9.552453756E-1
3.705737133E0,2.346216738E-1,9.834958076E0,-9.432749152E-1
3.708117758E0,2.298334837E-1,9.839746475E0,-9.504572153E-1
3.710499112E0,2.130747885E-1,9.842140198E0,-9.504572153E-1
3.712880518E0,2.130747885E-1,9.837351799E0,-9.432749152E-1
3.715261143E0,2.202570736E-1,9.842140198E0,-9.384866953E-1
3.717641768E0,2.226511836E-1,9.834958076E0,-9.360926151E-1
3.720023123E0,2.178629786E-1,9.830168724E0,-9.384866953E-1
3.722404529E0,2.154688835E-1,9.830168724E0,-9.432749152E-1
3.724785154E0,2.202570736E-1,9.825381279E0,-9.384866953E-1
3.727165779E0,2.250452787E-1,9.822986603E0,-9.336984754E-1
3.729547133E0,2.322275788E-1,9.815805435E0,-9.456689954E-1
3.731928539E0,2.370157838E-1,9.806227684E0,-9.504572153E-1
3.734309164E0,2.346216738E-1,9.815805435E0,-9.408808351E-1
3.736692134E0,2.394098788E-1,9.815805435E0,-9.432749152E-1
3.739073540E0,2.585626841E-1,9.811017036E0,-9.456689954E-1
3.741454947E0,2.753213346E-1,9.808623314E0,-9.432749152E-1
3.743833019E0,2.729272544E-1,9.820592880E0,-9.480631351E-1
3.746213644E0,2.705331445E-1,9.832564354E0,-9.432749152E-1
3.748595050E0,2.681390643E-1,9.830168724E0,-9.456689954E-1
3.750976456E0,2.705331445E-1,9.820592880E0,-9.720040560E-1
3.753357029E0,2.801095545E-1,9.827775002E0,-9.672158957E-1
3.755737654E0,2.777154744E-1,9.839746475E0,-9.528512955E-1
3.758119060E0,2.801095545E-1,9.830168724E0,-9.432749152E-1
3.760500467E0,2.777154744E-1,9.820592880E0,-9.336984754E-1
3.762882029E0,2.777154744E-1,9.808623314E0,-9.480631351E-1
3.765262654E0,2.657449543E-1,9.818199158E0,-9.528512955E-1
3.767644061E0,2.585626841E-1,9.830168724E0,-9.528512955E-1
3.770025467E0,2.633508742E-1,9.815805435E0,-9.600335956E-1
3.772406092E0,2.657449543E-1,9.818199158E0,-9.504572153E-1
3.774786717E0,2.633508742E-1,9.832564354E0,-9.480631351E-1
3.777168071E0,2.585626841E-1,9.830168724E0,-9.528512955E-1
3.779549477E0,2.537744641E-1,9.837351799E0,-9.528512955E-1
3.781930102E0,2.561685741E-1,9.830168724E0,-9.480631351E-1
3.784309842E0,2.585626841E-1,9.815805435E0,-9.552453756E-1
3.786691197E0,2.561685741E-1,9.830168724E0,-9.528512955E-1
3.789072603E0,2.537744641E-1,9.837351799E0,-9.456689954E-1
3.791453228E0,2.537744641E-1,9.839746475E0,-9.384866953E-1
3.793833853E0,2.513803840E-1,9.842140198E0,-9.265161753E-1
3.796215207E0,2.489862591E-1,9.839746475E0,-9.241221547E-1
3.798596613E0,2.633508742E-1,9.834958076E0,-9.336984754E-1
3.800977550E0,2.681390643E-1,9.820592880E0,-9.313044548E-1
3.803358175E0,2.705331445E-1,9.818199158E0,-9.289103150E-1
3.805739529E0,2.920800745E-1,9.815805435E0,-9.265161753E-1
3.808120936E0,2.968682647E-1,9.799045563E0,-9.360926151E-1
3.810501561E0,2.920800745E-1,9.791864395E0,-9.360926151E-1
3.812882186E0,2.896859348E-1,9.806227684E0,-9.193339348E-1
3.815263592E0,2.944741547E-1,9.815805435E0,-9.289103150E-1
3.817644998E0,2.920800745E-1,9.815805435E0,-9.528512955E-1
3.820025571E0,2.825036645E-1,9.832564354E0,-9.624276757E-1
3.822406196E0,2.801095545E-1,9.842140198E0,-9.672158957E-1
3.824787498E0,2.681390643E-1,9.844533920E0,-9.767923355E-1
3.827168905E0,2.489862591E-1,9.849322319E0,-9.743981957E-1
3.829549477E0,2.394098788E-1,9.856505394E0,-9.624276757E-1
3.831930102E0,2.465921789E-1,9.849322319E0,-9.696099758E-1
3.834311509E0,2.513803840E-1,9.839746475E0,-9.720040560E-1
3.836692915E0,2.322275788E-1,9.844533920E0,-9.576395154E-1
3.839073540E0,2.274393737E-1,9.846927643E0,-9.480631351E-1
3.841454165E0,2.322275788E-1,9.834958076E0,-9.504572153E-1
3.843835519E0,2.322275788E-1,9.827775002E0,-9.504572153E-1
3.846216925E0,2.441980839E-1,9.830168724E0,-9.408808351E-1
3.848597550E0,2.489862591E-1,9.820592880E0,-9.336984754E-1
3.850978175E0,2.561685741E-1,9.799045563E0,-9.384866953E-1
3.853359530E0,2.705331445E-1,9.794258118E0,-9.336984754E-1
3.855740936E0,2.729272544E-1,9.796651840E0,-9.384866953E-1
3.858121561E0,2.729272544E-1,9.799045563E0,-9.552453756E-1
3.860502186E0,2.705331445E-1,9.803833961E0,-9.624276757E-1
3.862883123E0,2.801095545E-1,9.811017036E0,-9.767923355E-1
3.865264529E0,2.825036645E-1,9.820592880E0,-9.887627959E-1
3.867645154E0,2.729272544E-1,9.827775002E0,-9.983391762E-1
3.870025779E0,2.753213346E-1,9.830168724E0,-1.000733256E0
3.872407133E0,2.657449543E-1,9.827775002E0,-9.911568761E-1
3.874788540E0,2.513803840E-1,9.837351799E0,-9.911568761E-1
3.877169165E0,2.489862591E-1,9.842140198E0,-9.791863561E-1
3.879549790E0,2.513803840E-1,9.827775002E0,-9.815804958E-1
3.881931144E0,2.465921789E-1,9.830168724E0,-9.863687158E-1
3.884312550E0,2.394098788E-1,9.834958076E0,-9.791863561E-1
3.886693175E0,2.441980839E-1,9.820592880E0,-9.672158957E-1
3.889073800E0,2.465921789E-1,9.813410759E0,-9.624276757E-1
3.891455206E0,2.465921789E-1,9.822986603E0,-9.648218155E-1
3.893836613E0,2.489862591E-1,9.832564354E0,-9.624276757E-1
3.896217185E0,2.441980839E-1,9.811017036E0,-9.743981957E-1
3.898597810E0,2.298334837E-1,9.811017036E0,-9.839745760E-1
3.900979217E0,2.322275788E-1,9.827775002E0,-9.863687158E-1
3.903360415E0,2.274393737E-1,9.827775002E0,-9.815804958E-1
3.905741040E0,2.226511836E-1,9.825381279E0,-9.815804958E-1
3.908121665E0,2.250452787E-1,9.822986603E0,-9.911568761E-1
3.910503019E0,2.226511836E-1,9.822986603E0,-9.959450364E-1
3.912884425E0,2.178629786E-1,9.834958076E0,-9.815804958E-1
3.915265050E0,2.226511836E-1,9.837351799E0,-9.887627959E-1
3.917645675E0,2.418039739E-1,9.825381279E0,-1.007915616E0
3.920027030E0,2.513803840E-1,9.815805435E0,-1.017491937E0
3.922408436E0,2.513803840E-1,9.813410759E0,-1.017491937E0
3.924789061E0,2.489862591E-1,9.820592880E0,-1.015097857E0
3.927169686E0,2.537744641E-1,9.825381279E0,-1.003127337E0
3.929551405E0,2.705331445E-1,9.827775002E0,-9.887627959E-1
3.931932811E0,2.848977447E-1,9.822986603E0,-9.911568761E-1
3.934313436E0,2.753213346E-1,9.806227684E0,-9.983391762E-1
3.936694061E0,2.657449543E-1,9.815805435E0,-1.005521536E0
3.939075467E0,2.753213346E-1,9.830168724E0,-1.003127337E0
3.941456874E0,2.705331445E-1,9.822986603E0,-9.983391762E-1
3.943837446E0,2.513803840E-1,9.830168724E0,-9.959450364E-1
3.946218071E0,2.585626841E-1,9.834958076E0,-1.007915616E0
3.948599477E0,2.633508742E-1,9.832564354E0,-1.015097857E0
3.950980883E0,2.537744641E-1,9.839746475E0,-1.012703776E0
3.953361456E0,2.441980839E-1,9.844533920E0,-1.007915616E0
3.955742081E0,2.346216738E-1,9.844533920E0,-1.005521536E0
3.958123695E0,2.370157838E-1,9.844533920E0,-1.019886017E0
3.960505102E0,2.418039739E-1,9.842140198E0,-1.015097857E0
3.962885674E0,2.465921789E-1,9.839746475E0,-1.010309696E0
3.965266299E0,2.537744641E-1,9.834958076E0,-1.010309696E0
3.967647706E0,2.633508742E-1,9.825381279E0,-1.022280216E0
3.970029112E0,2.872918546E-1,9.825381279E0,-1.022280216E0
3.972409737E0,3.040505350E-1,9.822986603E0,-9.959450364E-1
3.974790362E0,3.184151351E-1,9.818199158E0,-9.887627959E-1
3.977171716E0,3.208092153E-1,9.822986603E0,-1.007915616E0
3.979553122E0,3.327797055E-1,9.813410759E0,-9.959450364E-1
3.981933747E0,3.543266356E-1,9.803833961E0,-9.767923355E-1
3.984315570E0,3.399620354E-1,9.801440239E0,-9.863687158E-1
3.986696925E0,3.327797055E-1,9.799045563E0,-9.839745760E-1
3.989078331E0,3.543266356E-1,9.789469719E0,-9.815804958E-1
3.991458956E0,3.615089059E-1,9.789469719E0,-9.887627959E-1
3.993841301E0,3.423561156E-1,9.799045563E0,-9.767923355E-1
3.996222655E0,3.423561156E-1,9.811017036E0,-9.767923355E-1
3.998604061E0,3.423561156E-1,9.811017036E0,-9.815804958E-1
4.000984686E0,3.255974352E-1,9.801440239E0,-9.720040560E-1
4.003365311E0,3.184151351E-1,9.796651840E0,-9.696099758E-1
4.005746717E0,3.160210252E-1,9.806227684E0,-9.767923355E-1
4.008128124E0,3.208092153E-1,9.825381279E0,-9.815804958E-1
4.010508697E0,3.136269450E-1,9.834958076E0,-9.863687158E-1
4.012889322E0,2.968682647E-1,9.842140198E0,-9.887627959E-1
4.015270728E0,2.944741547E-1,9.839746475E0,-9.839745760E-1
4.017652134E0,2.968682647E-1,9.832564354E0,-1.000733256E0
4.020032707E0,2.968682647E-1,9.820592880E0,-9.959450364E-1
4.022413332E0,2.896859348E-1,9.820592880E0,-9.767923355E-1
4.024793331E0,2.920800745E-1,9.837351799E0,-9.696099758E-1
4.027174738E0,2.944741547E-1,9.825381279E0,-9.576395154E-1
4.029555363E0,2.920800745E-1,9.815805435E0,-9.552453756E-1
4.031935988E0,2.968682647E-1,9.820592880E0,-9.648218155E-1
4.034317342E0,2.968682647E-1,9.815805435E0,-9.600335956E-1
4.036698748E0,2.896859348E-1,9.813410759E0,-9.480631351E-1
4.039079373E0,2.872918546E-1,9.825381279E0,-9.552453756E-1
4.041459998E0,2.920800745E-1,9.832564354E0,-9.696099758E-1
4.043841352E0,2.825036645E-1,9.830168724E0,-9.767923355E-1
4.046222758E0,2.729272544E-1,9.830168724E0,-9.624276757E-1
4.048603383E0,2.729272544E-1,9.815805435E0,-9.624276757E-1
4.050984008E0,2.777154744E-1,9.806227684E0,-9.624276757E-1
4.053365363E0,2.944741547E-1,9.811017036E0,-9.576395154E-1
4.055746769E0,3.064446151E-1,9.815805435E0,-9.624276757E-1
4.058128748E0,3.040505350E-1,9.820592880E0,-9.528512955E-1
4.060509373E0,3.016564250E-1,9.801440239E0,-9.576395154E-1
4.062890727E0,2.968682647E-1,9.796651840E0,-9.791863561E-1
4.065271508E0,2.848977447E-1,9.820592880E0,-9.839745760E-1
4.067652133E0,2.848977447E-1,9.825381279E0,-9.696099758E-1
4.070032758E0,2.896859348E-1,9.820592880E0,-9.791863561E-1
4.072414164E0,2.896859348E-1,9.830168724E0,-9.815804958E-1
4.074795571E0,2.848977447E-1,9.830168724E0,-9.720040560E-1
4.077176821E0,2.872918546E-1,9.834958076E0,-9.767923355E-1
4.079557446E0,2.872918546E-1,9.839746475E0,-9.767923355E-1
4.081938852E0,2.825036645E-1,9.832564354E0,-9.720040560E-1
4.084320258E0,2.777154744E-1,9.827775002E0,-9.624276757E-1
4.086700883E0,2.825036645E-1,9.830168724E0,-9.624276757E-1
4.089081508E0,2.968682647E-1,9.827775002E0,-9.791863561E-1
4.091462862E0,3.016564250E-1,9.825381279E0,-9.839745760E-1
4.093844269E0,3.184151351E-1,9.822986603E0,-9.767923355E-1
4.096224894E0,3.160210252E-1,9.813410759E0,-9.552453756E-1
4.098605519E0,3.160210252E-1,9.801440239E0,-9.528512955E-1
4.100986873E0,3.327797055E-1,9.808623314E0,-9.672158957E-1
4.103365102E0,3.303856254E-1,9.820592880E0,-9.672158957E-1
4.105745727E0,3.351738155E-1,9.813410759E0,-9.672158957E-1
4.108126352E0,3.423561156E-1,9.813410759E0,-9.672158957E-1
4.110507706E0,3.279915452E-1,9.822986603E0,-9.576395154E-1
4.112889112E0,3.088387549E-1,9.827775002E0,-9.528512955E-1
4.115269737E0,3.040505350E-1,9.820592880E0,-9.576395154E-1
4.117650362E0,3.040505350E-1,9.813410759E0,-9.528512955E-1
4.120032290E0,2.944741547E-1,9.815805435E0,-9.432749152E-1
4.122413696E0,2.872918546E-1,9.818199158E0,-9.456689954E-1
4.124794269E0,2.777154744E-1,9.818199158E0,-9.456689954E-1
4.127174894E0,2.609567642E-1,9.827775002E0,-9.456689954E-1
4.129556300E0,2.489862591E-1,9.822986603E0,-9.480631351E-1
4.131937706E0,2.418039739E-1,9.815805435E0,-9.648218155E-1
4.134318279E0,2.394098788E-1,9.825381279E0,-9.648218155E-1
4.136698904E0,2.394098788E-1,9.837351799E0,-9.528512955E-1
4.139080310E0,2.489862591E-1,9.834958076E0,-9.504572153E-1
4.141461717E0,2.561685741E-1,9.827775002E0,-9.336984754E-1
4.143842342E0,2.657449543E-1,9.822986603E0,-9.265161753E-1
4.146224790E0,2.681390643E-1,9.813410759E0,-9.313044548E-1
4.148606144E0,2.705331445E-1,9.820592880E0,-9.289103150E-1
4.150987550E0,2.848977447E-1,9.813410759E0,-9.384866953E-1
4.153368175E0,2.896859348E-1,9.811017036E0,-9.432749152E-1
4.155749737E0,2.896859348E-1,9.808623314E0,-9.408808351E-1
4.158131091E0,2.968682647E-1,9.813410759E0,-9.504572153E-1
4.160512498E0,2.968682647E-1,9.820592880E0,-9.528512955E-1
4.162893123E0,2.848977447E-1,9.820592880E0,-9.528512955E-1
4.165273748E0,2.848977447E-1,9.834958076E0,-9.576395154E-1
4.167655102E0,3.016564250E-1,9.839746475E0,-9.624276757E-1
4.170036508E0,2.992623448E-1,9.834958076E0,-9.648218155E-1
4.172417133E0,2.872918546E-1,9.832564354E0,-9.600335956E-1
4.174797758E0,2.777154744E-1,9.830168724E0,-9.504572153E-1
4.177179112E0,2.920800745E-1,9.834958076E0,-9.384866953E-1
4.179560518E0,3.064446151E-1,9.839746475E0,-9.408808351E-1
4.181941143E0,3.184151351E-1,9.837351799E0,-9.504572153E-1
4.184318800E0,3.279915452E-1,9.834958076E0,-9.408808351E-1
4.186699999E0,3.232033551E-1,9.834958076E0,-9.480631351E-1
4.189081405E0,3.160210252E-1,9.832564354E0,-9.480631351E-1
4.191461978E0,3.160210252E-1,9.822986603E0,-9.480631351E-1
4.193842603E0,3.232033551E-1,9.820592880E0,-9.528512955E-1
4.196224009E0,3.255974352E-1,9.820592880E0,-9.456689954E-1
4.198605415E0,3.064446151E-1,9.818199158E0,-9.432749152E-1
4.200986040E0,3.016564250E-1,9.822986603E0,-9.432749152E-1
4.203366665E0,3.040505350E-1,9.818199158E0,-9.336984754E-1
4.205748019E0,3.040505350E-1,9.820592880E0,-9.336984754E-1
4.208129426E0,2.920800745E-1,9.822986603E0,-9.408808351E-1
4.210510051E0,2.753213346E-1,9.811017036E0,-9.360926151E-1
4.212890676E0,2.657449543E-1,9.803833961E0,-9.289103150E-1
4.215272030E0,2.585626841E-1,9.815805435E0,-9.384866953E-1
4.217653436E0,2.441980839E-1,9.827775002E0,-9.456689954E-1
4.220034061E0,2.394098788E-1,9.830168724E0,-9.265161753E-1
4.222414686E0,2.465921789E-1,9.839746475E0,-9.265161753E-1
4.224796092E0,2.465921789E-1,9.839746475E0,-9.360926151E-1
4.227177499E0,2.418039739E-1,9.839746475E0,-9.456689954E-1
4.229558124E0,2.489862591E-1,9.839746475E0,-9.480631351E-1
4.231938749E0,2.537744641E-1,9.834958076E0,-9.360926151E-1
4.234320155E0,2.609567642E-1,9.837351799E0,-9.336984754E-1
4.236701561E0,2.729272544E-1,9.837351799E0,-9.360926151E-1
4.239082134E0,2.633508742E-1,9.830168724E0,-9.360926151E-1
4.241462759E0,2.561685741E-1,9.827775002E0,-9.408808351E-1
4.243844165E0,2.585626841E-1,9.827775002E0,-9.360926151E-1
4.246225571E0,2.561685741E-1,9.834958076E0,-9.313044548E-1
4.248606196E0,2.609567642E-1,9.837351799E0,-9.313044548E-1
4.250988540E0,2.537744641E-1,9.830168724E0,-9.313044548E-1
4.253369895E0,2.394098788E-1,9.815805435E0,-9.289103150E-1
4.255751301E0,2.441980839E-1,9.815805435E0,-9.241221547E-1
4.258131926E0,2.489862591E-1,9.830168724E0,-9.097574949E-1
4.260512551E0,2.489862591E-1,9.830168724E0,-9.025752544E-1
4.262893539E0,2.370157838E-1,9.820592880E0,-9.097574949E-1
4.265274945E0,2.154688835E-1,9.815805435E0,-9.121516347E-1
4.267655570E0,2.154688835E-1,9.825381279E0,-9.193339348E-1
4.270036195E0,2.274393737E-1,9.827775002E0,-9.241221547E-1
4.272417549E0,2.322275788E-1,9.818199158E0,-9.289103150E-1
4.274799113E0,2.298334837E-1,9.818199158E0,-9.360926151E-1
4.277179738E0,2.226511836E-1,9.820592880E0,-9.432749152E-1
4.279560363E0,2.250452787E-1,9.825381279E0,-9.528512955E-1
4.281941769E0,2.298334837E-1,9.832564354E0,-9.456689954E-1
4.284323175E0,2.202570736E-1,9.832564354E0,-9.289103150E-1
4.286703748E0,2.058925033E-1,9.818199158E0,-9.241221547E-1
4.289084373E0,2.154688835E-1,9.822986603E0,-9.217280149E-1
4.291465779E0,2.226511836E-1,9.830168724E0,-9.169397950E-1
4.293847186E0,2.106806934E-1,9.820592880E0,-9.169397950E-1
4.296227811E0,2.130747885E-1,9.818199158E0,-9.169397950E-1
4.298608436E0,2.082865983E-1,9.822986603E0,-9.241221547E-1
4.300989790E0,2.130747885E-1,9.825381279E0,-9.265161753E-1
4.303369217E0,2.178629786E-1,9.820592880E0,-9.265161753E-1
4.305749842E0,2.226511836E-1,9.825381279E0,-9.313044548E-1
4.308130467E0,2.370157838E-1,9.837351799E0,-9.360926151E-1
4.310511821E0,2.274393737E-1,9.837351799E0,-9.408808351E-1
4.312893227E0,2.226511836E-1,9.837351799E0,-9.504572153E-1
4.315274581E0,2.418039739E-1,9.842140198E0,-9.576395154E-1
4.317655206E0,2.513803840E-1,9.849322319E0,-9.672158957E-1
4.320036561E0,2.513803840E-1,9.846927643E0,-9.624276757E-1
4.322417967E0,2.513803840E-1,9.830168724E0,-9.600335956E-1
4.324798592E0,2.489862591E-1,9.830168724E0,-9.624276757E-1
4.327179217E0,2.418039739E-1,9.832564354E0,-9.504572153E-1
4.329560623E0,2.394098788E-1,9.830168724E0,-9.456689954E-1
4.331942029E0,2.346216738E-1,9.830168724E0,-9.480631351E-1
4.334322602E0,2.226511836E-1,9.820592880E0,-9.432749152E-1
4.336703227E0,2.154688835E-1,9.822986603E0,-9.504572153E-1
4.339084634E0,2.130747885E-1,9.830168724E0,-9.552453756E-1
4.341466040E0,2.154688835E-1,9.822986603E0,-9.504572153E-1
4.343846665E0,2.082865983E-1,9.813410759E0,-9.528512955E-1
4.346228436E0,2.130747885E-1,9.811017036E0,-9.432749152E-1
4.348609790E0,2.250452787E-1,9.818199158E0,-9.336984754E-1
4.350991196E0,2.298334837E-1,9.827775002E0,-9.384866953E-1
4.353373018E0,2.346216738E-1,9.830168724E0,-9.408808351E-1
4.355753643E0,2.394098788E-1,9.822986603E0,-9.384866953E-1
4.358134997E0,2.418039739E-1,9.822986603E0,-9.480631351E-1
4.360516404E0,2.346216738E-1,9.822986603E0,-9.600335956E-1
4.362897029E0,2.226511836E-1,9.818199158E0,-9.624276757E-1
4.365277654E0,2.250452787E-1,9.825381279E0,-9.624276757E-1
4.367659008E0,2.178629786E-1,9.830168724E0,-9.648218155E-1
4.370040414E0,2.082865983E-1,9.832564354E0,-9.600335956E-1
4.372421039E0,1.963160932E-1,9.849322319E0,-9.600335956E-1
4.374801664E0,1.939219981E-1,9.851716042E0,-9.743981957E-1
4.377183070E0,1.891337931E-1,9.846927643E0,-9.624276757E-1
4.379564477E0,1.699810177E-1,9.839746475E0,-9.360926151E-1
4.381945049E0,1.675869077E-1,9.839746475E0,-9.432749152E-1
4.384323226E0,1.771633178E-1,9.832564354E0,-9.504572153E-1
4.386704633E0,1.891337931E-1,9.822986603E0,-9.384866953E-1
4.389086039E0,1.891337931E-1,9.825381279E0,-9.360926151E-1
4.391466664E0,1.915279031E-1,9.822986603E0,-9.408808351E-1
4.393847289E0,2.250452787E-1,9.827775002E0,-9.528512955E-1
4.396228643E0,2.441980839E-1,9.830168724E0,-9.696099758E-1
4.398610049E0,2.394098788E-1,9.813410759E0,-9.720040560E-1
4.400990674E0,2.513803840E-1,9.806227684E0,-9.743981957E-1
4.403371299E0,2.633508742E-1,9.820592880E0,-9.767923355E-1
4.405752654E0,2.729272544E-1,9.820592880E0,-9.743981957E-1
4.408134060E0,2.777154744E-1,9.808623314E0,-9.863687158E-1
4.410514685E0,2.705331445E-1,9.818199158E0,-9.911568761E-1
4.412895310E0,2.705331445E-1,9.830168724E0,-9.720040560E-1
4.415276716E0,2.657449543E-1,9.832564354E0,-9.648218155E-1
4.417658122E0,2.561685741E-1,9.827775002E0,-9.720040560E-1
4.420038695E0,2.394098788E-1,9.822986603E0,-9.600335956E-1
4.422419320E0,2.298334837E-1,9.825381279E0,-9.576395154E-1
4.424802446E0,2.322275788E-1,9.827775002E0,-9.672158957E-1
4.427184842E0,2.202570736E-1,9.832564354E0,-9.743981957E-1
4.429565415E0,2.154688835E-1,9.834958076E0,-9.887627959E-1
4.431946040E0,2.106806934E-1,9.827775002E0,-9.887627959E-1
4.434327446E0,2.226511836E-1,9.830168724E0,-9.863687158E-1
4.436708852E0,2.250452787E-1,9.832564354E0,-9.815804958E-1
4.439089477E0,2.106806934E-1,9.830168724E0,-9.743981957E-1
4.441468852E0,2.226511836E-1,9.825381279E0,-9.815804958E-1
4.443850206E0,2.322275788E-1,9.827775002E0,-9.863687158E-1
4.446231613E0,2.418039739E-1,9.825381279E0,-9.839745760E-1
4.448612238E0,2.298334837E-1,9.806227684E0,-9.815804958E-1
4.450992863E0,2.106806934E-1,9.811017036E0,-9.839745760E-1
4.453374217E0,2.154688835E-1,9.822986603E0,-9.911568761E-1
4.455755623E0,2.322275788E-1,9.815805435E0,-9.815804958E-1
4.458136248E0,2.226511836E-1,9.808623314E0,-9.767923355E-1
4.460516873E0,2.106806934E-1,9.818199158E0,-9.815804958E-1
4.462898227E0,2.106806934E-1,9.827775002E0,-9.959450364E-1
4.465278695E0,1.891337931E-1,9.827775002E0,-1.003127337E0
4.467659320E0,1.915279031E-1,9.825381279E0,-9.959450364E-1
4.470039945E0,1.891337931E-1,9.820592880E0,-9.911568761E-1
4.472421352E0,1.723751128E-1,9.820592880E0,-9.911568761E-1
4.474802290E0,1.819514930E-1,9.827775002E0,-9.887627959E-1
4.477182863E0,1.939219981E-1,9.820592880E0,-9.743981957E-1
4.479563488E0,1.915279031E-1,9.818199158E0,-9.815804958E-1
4.481944894E0,1.819514930E-1,9.825381279E0,-1.007915616E0
4.484326300E0,1.843456030E-1,9.830168724E0,-1.010309696E0
4.486706925E0,1.987102032E-1,9.832564354E0,-1.005521536E0
4.489087550E0,2.202570736E-1,9.827775002E0,-1.003127337E0
4.491468904E0,2.394098788E-1,9.815805435E0,-9.959450364E-1
4.493850311E0,2.346216738E-1,9.820592880E0,-1.007915616E0
4.496230936E0,2.178629786E-1,9.825381279E0,-1.003127337E0
4.498611561E0,2.202570736E-1,9.813410759E0,-9.767923355E-1
4.500992915E0,2.370157838E-1,9.815805435E0,-9.839745760E-1
4.503375467E0,2.250452787E-1,9.818199158E0,-9.959450364E-1
4.505756092E0,2.226511836E-1,9.815805435E0,-9.959450364E-1
4.508136716E0,2.298334837E-1,9.803833961E0,-9.959450364E-1
4.510518122E0,2.178629786E-1,9.811017036E0,-1.007915616E0
4.512899529E0,2.202570736E-1,9.825381279E0,-1.003127337E0
4.515280102E0,2.250452787E-1,9.820592880E0,-9.839745760E-1
4.517660727E0,2.274393737E-1,9.820592880E0,-9.887627959E-1
4.520042133E0,2.322275788E-1,9.827775002E0,-9.983391762E-1
4.522423539E0,2.346216738E-1,9.834958076E0,-1.003127337E0
4.524804112E0,2.346216738E-1,9.837351799E0,-1.000733256E0
4.527184737E0,2.226511836E-1,9.825381279E0,-9.959450364E-1
4.529566143E0,2.250452787E-1,9.818199158E0,-1.003127337E0
4.531947549E0,2.298334837E-1,9.834958076E0,-1.010309696E0
4.534328174E0,2.346216738E-1,9.827775002E0,-1.010309696E0
4.536708799E0,2.226511836E-1,9.815805435E0,-9.959450364E-1
4.539090154E0,2.154688835E-1,9.820592880E0,-9.791863561E-1
4.541471560E0,2.154688835E-1,9.825381279E0,-9.815804958E-1
4.543851195E0,2.130747885E-1,9.822986603E0,-9.911568761E-1
4.546231820E0,2.154688835E-1,9.832564354E0,-9.959450364E-1
4.548613174E0,2.202570736E-1,9.839746475E0,-9.959450364E-1
4.550994373E0,2.226511836E-1,9.844533920E0,-9.887627959E-1
4.553374425E0,2.106806934E-1,9.846927643E0,-9.863687158E-1
4.555755050E0,2.130747885E-1,9.839746475E0,-1.003127337E0
4.558136457E0,2.226511836E-1,9.839746475E0,-1.007915616E0
4.560517863E0,2.250452787E-1,9.834958076E0,-1.003127337E0
4.562898436E0,2.250452787E-1,9.822986603E0,-9.935510159E-1
4.565279061E0,2.370157838E-1,9.820592880E0,-9.743981957E-1
4.567660467E0,2.465921789E-1,9.818199158E0,-9.504572153E-1
4.570041873E0,2.537744641E-1,9.830168724E0,-9.480631351E-1
4.572422498E0,2.513803840E-1,9.832564354E0,-9.600335956E-1
4.574803123E0,2.489862591E-1,9.830168724E0,-9.528512955E-1
4.577184477E0,2.561685741E-1,9.830168724E0,-9.600335956E-1
4.579565884E0,2.657449543E-1,9.801440239E0,-9.815804958E-1
4.581946509E0,2.705331445E-1,9.806227684E0,-9.791863561E-1
4.584327915E0,2.657449543E-1,9.820592880E0,-9.648218155E-1
4.586709269E0,2.633508742E-1,9.822986603E0,-9.696099758E-1
4.589090675E0,2.705331445E-1,9.815805435E0,-9.743981957E-1
4.591471300E0,2.633508742E-1,9.803833961E0,-9.815804958E-1
4.593851925E0,2.513803840E-1,9.811017036E0,-9.743981957E-1
4.596233331E0,2.489862591E-1,9.820592880E0,-9.576395154E-1
4.598614738E0,2.513803840E-1,9.822986603E0,-9.648218155E-1
4.600995310E0,2.346216738E-1,9.825381279E0,-9.720040560E-1
4.603375935E0,2.298334837E-1,9.822986603E0,-9.648218155E-1
4.605757342E0,2.441980839E-1,9.827775002E0,-9.624276757E-1
4.608138748E0,2.370157838E-1,9.832564354E0,-9.480631351E-1
4.610519373E0,2.250452787E-1,9.825381279E0,-9.576395154E-1
4.612899998E0,2.346216738E-1,9.825381279E0,-9.863687158E-1
4.615281352E0,2.465921789E-1,9.822986603E0,-9.839745760E-1
4.617662758E0,2.298334837E-1,9.830168724E0,-9.791863561E-1
4.620043383E0,2.346216738E-1,9.839746475E0,-9.815804958E-1
4.622424008E0,2.513803840E-1,9.822986603E0,-9.720040560E-1
4.624805571E0,2.513803840E-1,9.815805435E0,-9.576395154E-1
4.627186977E0,2.537744641E-1,9.830168724E0,-9.624276757E-1
4.629567602E0,2.681390643E-1,9.834958076E0,-9.648218155E-1
4.631948227E0,2.753213346E-1,9.822986603E0,-9.672158957E-1
4.634329633E0,2.729272544E-1,9.815805435E0,-9.672158957E-1
4.636711352E0,2.777154744E-1,9.815805435E0,-9.791863561E-1
4.639091925E0,2.872918546E-1,9.808623314E0,-1.005521536E0
4.641472550E0,2.920800745E-1,9.806227684E0,-9.983391762E-1
4.643853956E0,3.016564250E-1,9.801440239E0,-1.000733256E0
4.646235363E0,3.088387549E-1,9.801440239E0,-9.983391762E-1
4.648615988E0,3.040505350E-1,9.803833961E0,-9.767923355E-1
4.650996613E0,3.064446151E-1,9.806227684E0,-9.624276757E-1
4.653377967E0,3.255974352E-1,9.806227684E0,-9.600335956E-1
4.655759373E0,3.279915452E-1,9.806227684E0,-9.648218155E-1
4.658139998E0,3.184151351E-1,9.818199158E0,-9.600335956E-1
4.660520623E0,3.136269450E-1,9.808623314E0,-9.624276757E-1
4.662901977E0,3.112328351E-1,9.791864395E0,-9.743981957E-1
4.665283748E0,3.160210252E-1,9.794258118E0,-9.743981957E-1
4.667664373E0,3.112328351E-1,9.801440239E0,-9.624276757E-1
4.670044998E0,3.040505350E-1,9.820592880E0,-9.624276757E-1
4.672426352E0,3.040505350E-1,9.822986603E0,-9.720040560E-1
4.674807966E0,2.968682647E-1,9.820592880E0,-9.791863561E-1
4.677188591E0,2.872918546E-1,9.830168724E0,-9.767923355E-1
4.679569216E0,2.753213346E-1,9.830168724E0,-9.720040560E-1
4.681950622E0,2.681390643E-1,9.827775002E0,-9.720040560E-1
4.684332028E0,2.705331445E-1,9.825381279E0,-9.672158957E-1
4.686712601E0,2.777154744E-1,9.827775002E0,-9.720040560E-1
4.689093226E0,2.801095545E-1,9.834958076E0,-9.767923355E-1
4.691474633E0,2.705331445E-1,9.832564354E0,-9.648218155E-1
4.693856039E0,2.657449543E-1,9.820592880E0,-9.624276757E-1
4.696236664E0,2.609567642E-1,9.818199158E0,-9.576395154E-1
4.698617289E0,2.585626841E-1,9.827775002E0,-9.504572153E-1
4.700998644E0,2.489862591E-1,9.820592880E0,-9.528512955E-1
4.703379998E0,2.418039739E-1,9.808623314E0,-9.528512955E-1
4.705760623E0,2.465921789E-1,9.799045563E0,-9.552453756E-1
4.708141248E0,2.489862591E-1,9.791864395E0,-9.528512955E-1
4.710522602E0,2.513803840E-1,9.803833961E0,-9.576395154E-1
4.712904009E0,2.489862591E-1,9.815805435E0,-9.576395154E-1
4.715284634E0,2.370157838E-1,9.818199158E0,-9.504572153E-1
4.717665259E0,2.441980839E-1,9.825381279E0,-9.624276757E-1
4.720046665E0,2.441980839E-1,9.825381279E0,-9.696099758E-1
4.722428071E0,2.441980839E-1,9.818199158E0,-9.767923355E-1
4.724808644E0,2.489862591E-1,9.825381279E0,-9.791863561E-1
4.727189269E0,2.513803840E-1,9.834958076E0,-9.696099758E-1
4.729570675E0,2.585626841E-1,9.849322319E0,-9.720040560E-1
4.731952082E0,2.609567642E-1,9.839746475E0,-9.839745760E-1
4.734332707E0,2.561685741E-1,9.839746475E0,-9.959450364E-1
4.736713332E0,2.418039739E-1,9.844533920E0,-1.000733256E0
4.739094686E0,2.394098788E-1,9.832564354E0,-9.959450364E-1
4.741476092E0,2.370157838E-1,9.832564354E0,-9.863687158E-1
4.743856717E0,2.250452787E-1,9.844533920E0,-9.648218155E-1
4.746236039E0,2.250452787E-1,9.846927643E0,-9.576395154E-1
4.748617654E0,2.250452787E-1,9.832564354E0,-9.648218155E-1
4.750999060E0,2.298334837E-1,9.832564354E0,-9.504572153E-1
4.753379685E0,2.250452787E-1,9.830168724E0,-9.504572153E-1
4.755760310E0,2.274393737E-1,9.818199158E0,-9.672158957E-1
4.758141717E0,2.394098788E-1,9.825381279E0,-9.767923355E-1
4.760523123E0,2.394098788E-1,9.825381279E0,-9.791863561E-1
4.762903696E0,2.561685741E-1,9.822986603E0,-9.815804958E-1
4.765284321E0,2.777154744E-1,9.822986603E0,-9.791863561E-1
4.767665727E0,2.729272544E-1,9.822986603E0,-9.767923355E-1
4.770047133E0,2.705331445E-1,9.827775002E0,-9.672158957E-1
4.772427758E0,2.801095545E-1,9.832564354E0,-9.600335956E-1
4.774808383E0,2.729272544E-1,9.834958076E0,-9.696099758E-1
4.777189738E0,2.633508742E-1,9.827775002E0,-9.648218155E-1
4.779571144E0,2.609567642E-1,9.827775002E0,-9.552453756E-1
4.781951769E0,2.513803840E-1,9.827775002E0,-9.648218155E-1
4.784333019E0,2.465921789E-1,9.834958076E0,-9.720040560E-1
4.786714373E0,2.418039739E-1,9.834958076E0,-9.648218155E-1
4.789095779E0,2.346216738E-1,9.832564354E0,-9.576395154E-1
4.791476404E0,2.178629786E-1,9.834958076E0,-9.528512955E-1
4.793857029E0,2.130747885E-1,9.834958076E0,-9.480631351E-1
4.796238435E0,2.082865983E-1,9.830168724E0,-9.504572153E-1
4.798619842E0,2.082865983E-1,9.832564354E0,-9.480631351E-1
4.801000415E0,2.250452787E-1,9.827775002E0,-9.552453756E-1
4.803381040E0,2.346216738E-1,9.830168724E0,-9.672158957E-1
4.805762446E0,2.346216738E-1,9.839746475E0,-9.815804958E-1
4.808143852E0,2.370157838E-1,9.832564354E0,-9.720040560E-1
4.810524477E0,2.394098788E-1,9.834958076E0,-9.600335956E-1
4.812905102E0,2.418039739E-1,9.842140198E0,-9.863687158E-1
4.815286456E0,2.609567642E-1,9.842140198E0,-9.815804958E-1
4.817667863E0,2.801095545E-1,9.830168724E0,-9.839745760E-1
4.820048488E0,2.872918546E-1,9.822986603E0,-9.887627959E-1
4.822429113E0,2.753213346E-1,9.827775002E0,-9.600335956E-1
4.824809478E0,2.585626841E-1,9.818199158E0,-9.528512955E-1
4.827190884E0,2.633508742E-1,9.801440239E0,-9.528512955E-1
4.829572133E0,2.585626841E-1,9.799045563E0,-9.528512955E-1
4.831952758E0,2.441980839E-1,9.801440239E0,-9.408808351E-1
4.834334164E0,2.537744641E-1,9.799045563E0,-9.313044548E-1
4.836715570E0,2.561685741E-1,9.801440239E0,-9.289103150E-1
4.839096143E0,2.441980839E-1,9.806227684E0,-9.313044548E-1
4.841476768E0,2.441980839E-1,9.818199158E0,-9.336984754E-1
4.843858175E0,2.609567642E-1,9.818199158E0,-9.336984754E-1
4.846239581E0,2.633508742E-1,9.815805435E0,-9.408808351E-1
4.848620206E0,2.609567642E-1,9.820592880E0,-9.480631351E-1
